time(ms)	gyro_x(deg/s)	gyro_y(deg/s)	gyro_z(deg/s)	orientation_roll(deg)	orientation_pitch(deg)	orientation_yaw(deg)	throttle	battery(V)	loop_time(uS)	pid_output_roll	pid_output_pitch	pid_output_yaw	pid_output_throttle	ultrasonic_alt	baro_alt	flight_mode	p_gain_altitude	i_gain_altitude	d_gain_altitude	compass_heading	latitude	longitude
507550	2584	1940	618	-14.6439	-48.48869	-198.0116	0	11.46	4004	0	0	0	0	0.04218902	0.4098366	1	15	0.04	1800	-70.42819	40.92393	-91.39363
507628	3688	3104	2058	-12.2834	-51.4136	-199.6912	0	11.46	4003	0	0	0	0	0.04218902	0.425854	1	15	0.04	1800	-71.13718	40.92393	-91.39364
507675	6301	3729	787	-6.875084	-56.39133	-202.4101	0	11.46	4003	0	0	0	0	0.04218902	0.4310122	1	15	0.04	1800	-69.76694	40.92393	-91.39364
507775	7084	1507	-627	-2.733737	-58.46016	-202.3787	0	11.46	4004	0	0	0	0	0.04218902	0.4660843	1	15	0.04	1800	-70.26129	40.92393	-91.39364
507881	6472	-1361	797	2.68378	-55.21828	-201.8273	0	11.46	4004	0	0	0	0	0.04218902	0.4885523	1	15	0.04	1800	-75.1705	40.92393	-91.39365
507977	6080	1838	1725	6.801717	-54.64532	-203.1686	0	11.46	4003	0	0	0	0	0.04218902	0.528872	1	15	0.04	1800	-76.73965	40.92393	-91.39365
508082	3753	-756	1470	8.602354	-52.19761	-205.7975	0	11.46	4004	0	0	0	0	0.04218902	0.5503438	1	15	0.04	1800	-77.12228	40.92393	-91.39365
508190	3591	-695	3761	12.13859	-52.93024	-210.1401	0	11.46	4003	0	0	0	0	0.04218902	0.577039	1	15	0.04	1800	-76.35199	40.92393	-91.39365
508335	9860	-3173	7081	30.32079	-44.42229	-222.2371	0	11.51	4003	0	0	0	0	0.04218902	0.5991012	1	15	0.04	1800	-68.47543	40.92393	-91.39365
508388	10449	-3050	7198	37.52209	-41.27836	-226.1958	0	11.51	4004	0	0	0	0	0.04218902	0.6080031	1	15	0.04	1800	-64.68103	40.92393	-91.39365
508535	4543	-1069	5917	61.33796	-23.54328	-243.0875	0	11.51	4003	0	0	0	0	0.04218902	0.6454971	1	15	0.04	1800	-62.98074	40.92394	-91.39365
508597	3921	-2375	4973	65.70967	-16.59786	-249.1328	0	11.51	4003	0	0	0	0	0.04218902	0.6629898	1	15	0.04	1800	-62.01016	40.92394	-91.39365
508721	3310	-111	3214	69.67395	-9.941958	-255.7537	0	11.51	4003	0	0	0	0	0.04218902	0.6870253	1	15	0.04	1800	-64.01776	40.92394	-91.39365
508893	-9783	-4685	1057	61.81804	-5.729537	-258.6913	0	11.51	4002	0	0	0	0	0.04218902	0.7121652	1	15	0.04	1800	-70.24988	40.92394	-91.39365
508931	-10746	-4213	1084	55.17264	-3.688879	-259.3376	0	11.51	4004	0	0	0	0	0.04218902	0.7142981	1	15	0.04	1800	-70.24988	40.92394	-91.39365
509074	-9518	-5072	1045	28.50361	0.334185	-263.0113	0	11.51	4003	0	0	0	0	0.04218902	0.7256782	1	15	0.04	1800	-81.47757	40.92394	-91.39365
509131	-3005	-4503	-2666	21.2668	5.104305	-262.4044	0	11.46	4004	0	0	0	0	0.04218902	0.7299302	1	15	0.04	1800	-86.67831	40.92394	-91.39365
509193	-2860	-5526	-1711	19.36942	6.408808	-261.0646	0	11.46	4004	0	0	0	0	0.04218902	0.7400349	1	15	0.04	1800	-86.67831	40.92394	-91.39365
509351	-732	-1232	-243	5.720532	18.54029	-259.6105	0	11.46	4004	0	0	0	0	0.04218902	0.7615377	1	15	0.04	1800	251.2978	40.92394	-91.39365
509429	-984	3326	768	3.697579	16.08357	-260.4305	0	11.46	4003	0	0	0	0	0.04218902	0.7711406	1	15	0.04	1800	246.561	40.92394	-91.39365
509495	-654	4438	957	2.788164	13.72177	-260.928	0	11.46	4003	0	0	0	0	0.04218902	0.7789996	1	15	0.04	1800	246.561	40.92394	-91.39365
509603	966	7406	-3172	-1.355439	-1.262443	-259.5343	0	11.46	4003	0	0	0	0	0.04218902	0.7709033	1	15	0.04	1800	252.6533	40.92394	-91.39365
509697	5940	7221	-5398	4.390104	-16.28717	-251.6944	0	11.46	4002	0	0	0	0	0.04218902	0.7573562	1	15	0.04	1800	244.8204	40.92394	-91.39366
509837	-4819	9087	-2969	2.907817	-32.77755	-246.2553	0	11.46	4003	0	0	0	0	0.04218902	0.7340518	1	15	0.04	1800	236.5601	40.92394	-91.39366
509905	-4106	4740	-2435	-4.58372	-40.87257	-243.4763	0	11.46	4004	0	0	0	0	0.04218902	0.7291263	1	15	0.04	1800	236.5601	40.92394	-91.39367
510165	-3972	778	-4792	-20.85709	-41.25698	-223.4763	0	11.51	4003	0	0	0	0	0.04218902	0.7237176	1	15	0.04	1800	201.4814	40.92393	-91.39368
510247	-918	1323	-3271	-29.82418	-39.41153	-216.5778	0	11.51	4003	0	0	0	0	0.04218902	0.724107	1	15	0.04	1800	192.1102	40.92394	-91.39368
510317	622	1063	-3405	-33.71976	-39.38764	-211.7676	0	11.51	4004	0	0	0	0	0.04218902	0.7255828	1	15	0.04	1800	186.3721	40.92394	-91.39368
510428	-1575	485	-1326	-37.41498	-35.39386	-208.4651	0	11.51	4003	0	0	0	0	0.04218902	0.7340458	1	15	0.04	1800	170.8008	40.92393	-91.39368
510562	2180	-4038	-4575	-34.80366	-28.3088	-201.2589	0	11.51	4004	0	0	0	0	0.04218902	0.7402229	1	15	0.04	1800	159.795	40.92393	-91.39368
510646	4067	-5984	-6505	-33.53553	-18.44062	-194.6786	0	11.51	4002	0	0	0	0	0.04218902	0.7479253	1	15	0.04	1800	150.3202	40.92393	-91.39368
510725	3380	-4988	-5826	-31.73992	-8.527684	-187.8165	0	11.51	4002	0	0	0	0	0.04218902	0.7484052	1	15	0.04	1800	143.1111	40.92393	-91.39368
510920	-1810	-5514	2076	-25.22449	12.79709	-177.3963	0	11.51	4003	0	0	0	0	0.04218902	0.7608578	1	15	0.04	1800	142.7552	40.92393	-91.39369
510958	-4132	-1584	4455	-27.28218	13.83236	-179.3324	0	11.51	4003	0	0	0	0	0.04218902	0.7615184	1	15	0.04	1800	142.7552	40.92393	-91.39369
511024	-4844	408	7411	-37.77519	5.626211	-189.914	0	11.46	4004	0	0	0	0	0.04218902	0.7642823	1	15	0.04	1800	153.937	40.92394	-91.3937
511127	-6150	130	4266	-44.26826	0.9631982	-196.5443	0	11.46	4003	0	0	0	0	0.04218902	0.7623827	1	15	0.04	1800	161.2002	40.92394	-91.3937
511304	-2356	296	2613	-55.00764	-6.194016	-205.1215	0	11.46	4004	0	0	0	0	0.04218902	0.7557586	1	15	0.04	1800	166.0752	40.92394	-91.3937
511339	581	-1688	1738	-55.90324	-8.140835	-207.6249	0	11.46	4004	0	0	0	0	0.04218902	0.7558522	1	15	0.04	1800	168.5461	40.92394	-91.3937
511442	1664	-4293	-735	-54.30567	-4.996744	-208.0258	0	11.46	4003	0	0	0	0	0.04218902	0.7551552	1	15	0.04	1800	170.2086	40.92394	-91.3937
511541	-1604	-3898	634	-54.25561	6.002512	-206.7808	0	11.46	4002	0	0	0	0	0.04218902	0.758586	1	15	0.04	1800	176.2249	40.92394	-91.3937
511679	1572	-523	1034	-55.45713	6.616983	-209.1734	0	11.46	4003	0	0	0	0	0.04218902	0.7587918	1	15	0.04	1800	180.3127	40.92394	-91.3937
511751	3034	1220	14	-52.70625	5.672481	-209.493	0	11.46	4003	0	0	0	0	0.04218902	0.7611419	1	15	0.04	1800	182.3642	40.92395	-91.3937
511856	2732	1152	22	-46.44154	1.472169	-209.5899	0	11.46	4002	0	0	0	0	0.04218902	0.7620673	1	15	0.04	1800	176.2785	40.92395	-91.3937
511951	3109	306	-452	-43.30229	0.7806377	-209.4328	0	11.46	4003	0	0	0	0	0.04218902	0.761516	1	15	0.04	1800	174.0136	40.92395	-91.3937
512127	-717	1441	-4765	-39.05538	4.995796	-201.9349	0	11.46	4004	0	0	0	0	0.04218902	0.754476	1	15	0.04	1800	168.8713	40.92395	-91.3937
512157	-554	2714	-5462	-39.39793	5.851521	-199.0318	0	11.46	4002	0	0	0	0	0.04218902	0.754476	1	15	0.04	1800	168.8713	40.92395	-91.3937
512287	-2955	6964	-4879	-41.1694	3.729642	-189.2092	0	11.46	4002	0	0	0	0	0.04218902	0.7554425	1	15	0.04	1800	151.978	40.92395	-91.3937
512397	-2378	5267	-3157	-47.43964	-4.770201	-183.2464	0	11.46	4004	0	0	0	0	0.04218902	0.7592155	1	15	0.04	1800	135.7139	40.92395	-91.3937
512473	-492	1106	-2035	-49.15524	-5.003891	-180.2297	0	11.46	4003	0	0	0	0	0.04218902	0.7558944	1	15	0.04	1800	135.7139	40.92395	-91.3937
512559	880	313	-1830	-48.62997	-4.213393	-178.2119	0	11.46	4003	0	0	0	0	0.04218902	0.7534685	1	15	0.04	1800	132.9357	40.92395	-91.3937
512666	-2262	2473	630	-49.40235	-6.400043	-177.7096	0	11.46	4004	0	0	0	0	0.04218902	0.7553233	1	15	0.04	1800	129.936	40.92395	-91.3937
512776	-1733	2759	262	-53.30476	-10.35099	-177.6087	0	11.46	4002	0	0	0	0	0.04218902	0.7742595	1	15	0.04	1800	125.9203	40.92395	-91.3937
512873	60	733	453	-54.33317	-14.07572	-179.088	0	11.4	4003	0	0	0	0	0.04218902	0.7904701	1	15	0.04	1800	125.1949	40.92395	-91.3937
512990	744	107	-29	-53.46052	-15.0657	-179.6362	0	11.4	4002	0	0	0	0	0.04218902	0.7998323	1	15	0.04	1800	125.9323	40.92395	-91.3937
513072	-183	247	76	-52.23104	-13.95711	-179.2098	0	11.4	4003	0	0	0	0	0.04218902	0.8057728	1	15	0.04	1800	124.5699	40.92394	-91.3937
513175	278	-1317	-398	-52.46815	-12.37134	-178.8362	0	11.4	4003	0	0	0	0	0.04218902	0.8095641	1	15	0.04	1800	123.5561	40.92394	-91.3937
513275	737	-403	-201	-51.72477	-11.16732	-178.4969	0	11.4	4003	0	0	0	0	0.04218902	0.812115	1	15	0.04	1800	124.0935	40.92394	-91.3937
513373	737	-403	-201	-51.72477	-11.16732	-178.4969	0	11.4	4003	0	0	0	0	0.04218902	0.812115	1	15	0.04	1800	124.0935	40.92394	-91.3937
513462	737	-403	-201	-51.72477	-11.16732	-178.4969	0	11.4	4003	0	0	0	0	0.04218902	0.812115	1	15	0.04	1800	124.0935	40.92394	-91.3937
513555	737	-403	-201	-51.72477	-11.16732	-178.4969	0	11.4	4003	0	0	0	0	0.04218902	0.812115	1	15	0.04	1800	124.0935	40.92394	-91.3937
513640	737	-403	-201	-51.72477	-11.16732	-178.4969	0	11.4	4003	0	0	0	0	0.04218902	0.812115	1	15	0.04	1800	124.0935	40.92394	-91.3937
513746	737	-403	-201	-51.72477	-11.16732	-178.4969	0	11.4	4003	0	0	0	0	0.04218902	0.812115	1	15	0.04	1800	124.0935	40.92394	-91.3937
513832	737	-403	-201	-51.72477	-11.16732	-178.4969	0	11.4	4003	0	0	0	0	0.04218902	0.812115	1	15	0.04	1800	124.0935	40.92394	-91.3937
513924	737	-403	-201	-51.72477	-11.16732	-178.4969	0	11.4	4003	0	0	0	0	0.04218902	0.812115	1	15	0.04	1800	124.0935	40.92394	-91.3937
514013	737	-403	-201	-51.72477	-11.16732	-178.4969	0	11.4	4003	0	0	0	0	0.04218902	0.812115	1	15	0.04	1800	124.0935	40.92394	-91.3937
514104	737	-403	-201	-51.72477	-11.16732	-178.4969	0	11.4	4003	0	0	0	0	0.04218902	0.812115	1	15	0.04	1800	124.0935	40.92394	-91.3937
514190	737	-403	-201	-51.72477	-11.16732	-178.4969	0	11.4	4003	0	0	0	0	0.04218902	0.812115	1	15	0.04	1800	124.0935	40.92394	-91.3937
514286	737	-403	-201	-51.72477	-11.16732	-178.4969	0	11.4	4003	0	0	0	0	0.04218902	0.812115	1	15	0.04	1800	124.0935	40.92394	-91.3937
514371	737	-403	-201	-51.72477	-11.16732	-178.4969	0	11.4	4003	0	0	0	0	0.04218902	0.812115	1	15	0.04	1800	124.0935	40.92394	-91.3937
514461	737	-403	-201	-51.72477	-11.16732	-178.4969	0	11.4	4003	0	0	0	0	0.04218902	0.812115	1	15	0.04	1800	124.0935	40.92394	-91.3937
514551	737	-403	-201	-51.72477	-11.16732	-178.4969	0	11.4	4003	0	0	0	0	0.04218902	0.812115	1	15	0.04	1800	124.0935	40.92394	-91.3937
514639	737	-403	-201	-51.72477	-11.16732	-178.4969	0	11.4	4003	0	0	0	0	0.04218902	0.812115	1	15	0.04	1800	124.0935	40.92394	-91.3937
514737	737	-403	-201	-51.72477	-11.16732	-178.4969	0	11.4	4003	0	0	0	0	0.04218902	0.812115	1	15	0.04	1800	124.0935	40.92394	-91.3937
514844	737	-403	-201	-51.72477	-11.16732	-178.4969	0	11.4	4003	0	0	0	0	0.04218902	0.812115	1	15	0.04	1800	124.0935	40.92394	-91.3937
514929	737	-403	-201	-51.72477	-11.16732	-178.4969	0	11.4	4003	0	0	0	0	0.04218902	0.812115	1	15	0.04	1800	124.0935	40.92394	-91.3937
515016	737	-403	-201	-51.72477	-11.16732	-178.4969	0	11.4	4003	0	0	0	0	0.04218902	0.812115	1	15	0.04	1800	124.0935	40.92394	-91.3937
515108	737	-403	-201	-51.72477	-11.16732	-178.4969	0	11.4	4003	0	0	0	0	0.04218902	0.812115	1	15	0.04	1800	124.0935	40.92394	-91.3937
515189	737	-403	-201	-51.72477	-11.16732	-178.4969	0	11.4	4003	0	0	0	0	0.04218902	0.812115	1	15	0.04	1800	124.0935	40.92394	-91.3937
515281	737	-403	-201	-51.72477	-11.16732	-178.4969	0	11.4	4003	0	0	0	0	0.04218902	0.812115	1	15	0.04	1800	124.0935	40.92394	-91.3937
515364	737	-403	-201	-51.72477	-11.16732	-178.4969	0	11.4	4003	0	0	0	0	0.04218902	0.812115	1	15	0.04	1800	124.0935	40.92394	-91.3937
515450	737	-403	-201	-51.72477	-11.16732	-178.4969	0	11.4	4003	0	0	0	0	0.04218902	0.812115	1	15	0.04	1800	124.0935	40.92394	-91.3937
515538	737	-403	-201	-51.72477	-11.16732	-178.4969	0	11.4	4003	0	0	0	0	0.04218902	0.812115	1	15	0.04	1800	124.0935	40.92394	-91.3937
515627	737	-403	-201	-51.72477	-11.16732	-178.4969	0	11.4	4003	0	0	0	0	0.04218902	0.812115	1	15	0.04	1800	124.0935	40.92394	-91.3937
515723	737	-403	-201	-51.72477	-11.16732	-178.4969	0	11.4	4003	0	0	0	0	0.04218902	0.812115	1	15	0.04	1800	124.0935	40.92394	-91.3937
515826	737	-403	-201	-51.72477	-11.16732	-178.4969	0	11.4	4003	0	0	0	0	0.04218902	0.812115	1	15	0.04	1800	124.0935	40.92394	-91.3937
515917	737	-403	-201	-51.72477	-11.16732	-178.4969	0	11.4	4003	0	0	0	0	0.04218902	0.812115	1	15	0.04	1800	124.0935	40.92394	-91.3937
516001	737	-403	-201	-51.72477	-11.16732	-178.4969	0	11.4	4003	0	0	0	0	0.04218902	0.812115	1	15	0.04	1800	124.0935	40.92394	-91.3937
516086	737	-403	-201	-51.72477	-11.16732	-178.4969	0	11.4	4003	0	0	0	0	0.04218902	0.812115	1	15	0.04	1800	124.0935	40.92394	-91.3937
516180	737	-403	-201	-51.72477	-11.16732	-178.4969	0	11.4	4003	0	0	0	0	0.04218902	0.812115	1	15	0.04	1800	124.0935	40.92394	-91.3937
516261	737	-403	-201	-51.72477	-11.16732	-178.4969	0	11.4	4003	0	0	0	0	0.04218902	0.812115	1	15	0.04	1800	124.0935	40.92394	-91.3937
516351	737	-403	-201	-51.72477	-11.16732	-178.4969	0	11.4	4003	0	0	0	0	0.04218902	0.812115	1	15	0.04	1800	124.0935	40.92394	-91.3937
516438	737	-403	-201	-51.72477	-11.16732	-178.4969	0	11.4	4003	0	0	0	0	0.04218902	0.812115	1	15	0.04	1800	124.0935	40.92394	-91.3937
516526	737	-403	-201	-51.72477	-11.16732	-178.4969	0	11.4	4003	0	0	0	0	0.04218902	0.812115	1	15	0.04	1800	124.0935	40.92394	-91.3937
516612	737	-403	-201	-51.72477	-11.16732	-178.4969	0	11.4	4003	0	0	0	0	0.04218902	0.812115	1	15	0.04	1800	124.0935	40.92394	-91.3937
516700	737	-403	-201	-51.72477	-11.16732	-178.4969	0	11.4	4003	0	0	0	0	0.04218902	0.812115	1	15	0.04	1800	124.0935	40.92394	-91.3937
516802	737	-403	-201	-51.72477	-11.16732	-178.4969	0	11.4	4003	0	0	0	0	0.04218902	0.812115	1	15	0.04	1800	124.0935	40.92394	-91.3937
516908	737	-403	-201	-51.72477	-11.16732	-178.4969	0	11.4	4003	0	0	0	0	0.04218902	0.812115	1	15	0.04	1800	124.0935	40.92394	-91.3937
516997	737	-403	-201	-51.72477	-11.16732	-178.4969	0	11.4	4003	0	0	0	0	0.04218902	0.812115	1	15	0.04	1800	124.0935	40.92394	-91.3937
517089	737	-403	-201	-51.72477	-11.16732	-178.4969	0	11.4	4003	0	0	0	0	0.04218902	0.812115	1	15	0.04	1800	124.0935	40.92394	-91.3937
517175	737	-403	-201	-51.72477	-11.16732	-178.4969	0	11.4	4003	0	0	0	0	0.04218902	0.812115	1	15	0.04	1800	124.0935	40.92394	-91.3937
517267	737	-403	-201	-51.72477	-11.16732	-178.4969	0	11.4	4003	0	0	0	0	0.04218902	0.812115	1	15	0.04	1800	124.0935	40.92394	-91.3937
517355	737	-403	-201	-51.72477	-11.16732	-178.4969	0	11.4	4003	0	0	0	0	0.04218902	0.812115	1	15	0.04	1800	124.0935	40.92394	-91.3937
517446	737	-403	-201	-51.72477	-11.16732	-178.4969	0	11.4	4003	0	0	0	0	0.04218902	0.812115	1	15	0.04	1800	124.0935	40.92394	-91.3937
517540	737	-403	-201	-51.72477	-11.16732	-178.4969	0	11.4	4003	0	0	0	0	0.04218902	0.812115	1	15	0.04	1800	124.0935	40.92394	-91.3937
517630	737	-403	-201	-51.72477	-11.16732	-178.4969	0	11.4	4003	0	0	0	0	0.04218902	0.812115	1	15	0.04	1800	124.0935	40.92394	-91.3937
517719	737	-403	-201	-51.72477	-11.16732	-178.4969	0	11.4	4003	0	0	0	0	0.04218902	0.812115	1	15	0.04	1800	124.0935	40.92394	-91.3937
517814	737	-403	-201	-51.72477	-11.16732	-178.4969	0	11.4	4003	0	0	0	0	0.04218902	0.812115	1	15	0.04	1800	124.0935	40.92394	-91.3937
517906	737	-403	-201	-51.72477	-11.16732	-178.4969	0	11.4	4003	0	0	0	0	0.04218902	0.812115	1	15	0.04	1800	124.0935	40.92394	-91.3937
518012	737	-403	-201	-51.72477	-11.16732	-178.4969	0	11.4	4003	0	0	0	0	0.04218902	0.812115	1	15	0.04	1800	124.0935	40.92394	-91.3937
518099	737	-403	-201	-51.72477	-11.16732	-178.4969	0	11.4	4003	0	0	0	0	0.04218902	0.812115	1	15	0.04	1800	124.0935	40.92394	-91.3937
518197	737	-403	-201	-51.72477	-11.16732	-178.4969	0	11.4	4003	0	0	0	0	0.04218902	0.812115	1	15	0.04	1800	124.0935	40.92394	-91.3937
518285	737	-403	-201	-51.72477	-11.16732	-178.4969	0	11.4	4003	0	0	0	0	0.04218902	0.812115	1	15	0.04	1800	124.0935	40.92394	-91.3937
518375	737	-403	-201	-51.72477	-11.16732	-178.4969	0	11.4	4003	0	0	0	0	0.04218902	0.812115	1	15	0.04	1800	124.0935	40.92394	-91.3937
518466	737	-403	-201	-51.72477	-11.16732	-178.4969	0	11.4	4003	0	0	0	0	0.04218902	0.812115	1	15	0.04	1800	124.0935	40.92394	-91.3937
518558	737	-403	-201	-51.72477	-11.16732	-178.4969	0	11.4	4003	0	0	0	0	0.04218902	0.812115	1	15	0.04	1800	124.0935	40.92394	-91.3937
518649	737	-403	-201	-51.72477	-11.16732	-178.4969	0	11.4	4003	0	0	0	0	0.04218902	0.812115	1	15	0.04	1800	124.0935	40.92394	-91.3937
518737	737	-403	-201	-51.72477	-11.16732	-178.4969	0	11.4	4003	0	0	0	0	0.04218902	0.812115	1	15	0.04	1800	124.0935	40.92394	-91.3937
518827	737	-403	-201	-51.72477	-11.16732	-178.4969	0	11.4	4003	0	0	0	0	0.04218902	0.812115	1	15	0.04	1800	124.0935	40.92394	-91.3937
518912	737	-403	-201	-51.72477	-11.16732	-178.4969	0	11.4	4003	0	0	0	0	0.04218902	0.812115	1	15	0.04	1800	124.0935	40.92394	-91.3937
519010	737	-403	-201	-51.72477	-11.16732	-178.4969	0	11.4	4003	0	0	0	0	0.04218902	0.812115	1	15	0.04	1800	124.0935	40.92394	-91.3937
519102	737	-403	-201	-51.72477	-11.16732	-178.4969	0	11.4	4003	0	0	0	0	0.04218902	0.812115	1	15	0.04	1800	124.0935	40.92394	-91.3937
519192	737	-403	-201	-51.72477	-11.16732	-178.4969	0	11.4	4003	0	0	0	0	0.04218902	0.812115	1	15	0.04	1800	124.0935	40.92394	-91.3937
519274	737	-403	-201	-51.72477	-11.16732	-178.4969	0	11.4	4003	0	0	0	0	0.04218902	0.812115	1	15	0.04	1800	124.0935	40.92394	-91.3937
519368	737	-403	-201	-51.72477	-11.16732	-178.4969	0	11.4	4003	0	0	0	0	0.04218902	0.812115	1	15	0.04	1800	124.0935	40.92394	-91.3937
519454	737	-403	-201	-51.72477	-11.16732	-178.4969	0	11.4	4003	0	0	0	0	0.04218902	0.812115	1	15	0.04	1800	124.0935	40.92394	-91.3937
519547	737	-403	-201	-51.72477	-11.16732	-178.4969	0	11.4	4003	0	0	0	0	0.04218902	0.812115	1	15	0.04	1800	124.0935	40.92394	-91.3937
519635	737	-403	-201	-51.72477	-11.16732	-178.4969	0	11.4	4003	0	0	0	0	0.04218902	0.812115	1	15	0.04	1800	124.0935	40.92394	-91.3937
519726	737	-403	-201	-51.72477	-11.16732	-178.4969	0	11.4	4003	0	0	0	0	0.04218902	0.812115	1	15	0.04	1800	124.0935	40.92394	-91.3937
519819	737	-403	-201	-51.72477	-11.16732	-178.4969	0	11.4	4003	0	0	0	0	0.04218902	0.812115	1	15	0.04	1800	124.0935	40.92394	-91.3937
519910	737	-403	-201	-51.72477	-11.16732	-178.4969	0	11.4	4003	0	0	0	0	0.04218902	0.812115	1	15	0.04	1800	124.0935	40.92394	-91.3937
520000	737	-403	-201	-51.72477	-11.16732	-178.4969	0	11.4	4003	0	0	0	0	0.04218902	0.812115	1	15	0.04	1800	124.0935	40.92394	-91.3937
520110	737	-403	-201	-51.72477	-11.16732	-178.4969	0	11.4	4003	0	0	0	0	0.04218902	0.812115	1	15	0.04	1800	124.0935	40.92394	-91.3937
520192	737	-403	-201	-51.72477	-11.16732	-178.4969	0	11.4	4003	0	0	0	0	0.04218902	0.812115	1	15	0.04	1800	124.0935	40.92394	-91.3937
520284	737	-403	-201	-51.72477	-11.16732	-178.4969	0	11.4	4003	0	0	0	0	0.04218902	0.812115	1	15	0.04	1800	124.0935	40.92394	-91.3937
520373	737	-403	-201	-51.72477	-11.16732	-178.4969	0	11.4	4003	0	0	0	0	0.04218902	0.812115	1	15	0.04	1800	124.0935	40.92394	-91.3937
520456	737	-403	-201	-51.72477	-11.16732	-178.4969	0	11.4	4003	0	0	0	0	0.04218902	0.812115	1	15	0.04	1800	124.0935	40.92394	-91.3937
520544	737	-403	-201	-51.72477	-11.16732	-178.4969	0	11.4	4003	0	0	0	0	0.04218902	0.812115	1	15	0.04	1800	124.0935	40.92394	-91.3937
520628	737	-403	-201	-51.72477	-11.16732	-178.4969	0	11.4	4003	0	0	0	0	0.04218902	0.812115	1	15	0.04	1800	124.0935	40.92394	-91.3937
520714	737	-403	-201	-51.72477	-11.16732	-178.4969	0	11.4	4003	0	0	0	0	0.04218902	0.812115	1	15	0.04	1800	124.0935	40.92394	-91.3937
520800	737	-403	-201	-51.72477	-11.16732	-178.4969	0	11.4	4003	0	0	0	0	0.04218902	0.812115	1	15	0.04	1800	124.0935	40.92394	-91.3937
520898	737	-403	-201	-51.72477	-11.16732	-178.4969	0	11.4	4003	0	0	0	0	0.04218902	0.812115	1	15	0.04	1800	124.0935	40.92394	-91.3937
521000	737	-403	-201	-51.72477	-11.16732	-178.4969	0	11.4	4003	0	0	0	0	0.04218902	0.812115	1	15	0.04	1800	124.0935	40.92394	-91.3937
521096	737	-403	-201	-51.72477	-11.16732	-178.4969	0	11.4	4003	0	0	0	0	0.04218902	0.812115	1	15	0.04	1800	124.0935	40.92394	-91.3937
521197	737	-403	-201	-51.72477	-11.16732	-178.4969	0	11.4	4003	0	0	0	0	0.04218902	0.812115	1	15	0.04	1800	124.0935	40.92394	-91.3937
521302	737	-403	-201	-51.72477	-11.16732	-178.4969	0	11.4	4003	0	0	0	0	0.04218902	0.812115	1	15	0.04	1800	124.0935	40.92394	-91.3937
521396	737	-403	-201	-51.72477	-11.16732	-178.4969	0	11.4	4003	0	0	0	0	0.04218902	0.812115	1	15	0.04	1800	124.0935	40.92394	-91.3937
521500	737	-403	-201	-51.72477	-11.16732	-178.4969	0	11.4	4003	0	0	0	0	0.04218902	0.812115	1	15	0.04	1800	124.0935	40.92394	-91.3937
521595	737	-403	-201	-51.72477	-11.16732	-178.4969	0	11.4	4003	0	0	0	0	0.04218902	0.812115	1	15	0.04	1800	124.0935	40.92394	-91.3937
521701	737	-403	-201	-51.72477	-11.16732	-178.4969	0	11.4	4003	0	0	0	0	0.04218902	0.812115	1	15	0.04	1800	124.0935	40.92394	-91.3937
521797	737	-403	-201	-51.72477	-11.16732	-178.4969	0	11.4	4003	0	0	0	0	0.04218902	0.812115	1	15	0.04	1800	124.0935	40.92394	-91.3937
521901	737	-403	-201	-51.72477	-11.16732	-178.4969	0	11.4	4003	0	0	0	0	0.04218902	0.812115	1	15	0.04	1800	124.0935	40.92394	-91.3937
521993	737	-403	-201	-51.72477	-11.16732	-178.4969	0	11.4	4003	0	0	0	0	0.04218902	0.812115	1	15	0.04	1800	124.0935	40.92394	-91.3937
522086	737	-403	-201	-51.72477	-11.16732	-178.4969	0	11.4	4003	0	0	0	0	0.04218902	0.812115	1	15	0.04	1800	124.0935	40.92394	-91.3937
522190	737	-403	-201	-51.72477	-11.16732	-178.4969	0	11.4	4003	0	0	0	0	0.04218902	0.812115	1	15	0.04	1800	124.0935	40.92394	-91.3937
522275	737	-403	-201	-51.72477	-11.16732	-178.4969	0	11.4	4003	0	0	0	0	0.04218902	0.812115	1	15	0.04	1800	124.0935	40.92394	-91.3937
522369	737	-403	-201	-51.72477	-11.16732	-178.4969	0	11.4	4003	0	0	0	0	0.04218902	0.812115	1	15	0.04	1800	124.0935	40.92394	-91.3937
522455	737	-403	-201	-51.72477	-11.16732	-178.4969	0	11.4	4003	0	0	0	0	0.04218902	0.812115	1	15	0.04	1800	124.0935	40.92394	-91.3937
522543	737	-403	-201	-51.72477	-11.16732	-178.4969	0	11.4	4003	0	0	0	0	0.04218902	0.812115	1	15	0.04	1800	124.0935	40.92394	-91.3937
522624	737	-403	-201	-51.72477	-11.16732	-178.4969	0	11.4	4003	0	0	0	0	0.04218902	0.812115	1	15	0.04	1800	124.0935	40.92394	-91.3937
522712	737	-403	-201	-51.72477	-11.16732	-178.4969	0	11.4	4003	0	0	0	0	0.04218902	0.812115	1	15	0.04	1800	124.0935	40.92394	-91.3937
522792	737	-403	-201	-51.72477	-11.16732	-178.4969	0	11.4	4003	0	0	0	0	0.04218902	0.812115	1	15	0.04	1800	124.0935	40.92394	-91.3937
522880	737	-403	-201	-51.72477	-11.16732	-178.4969	0	11.4	4003	0	0	0	0	0.04218902	0.812115	1	15	0.04	1800	124.0935	40.92394	-91.3937
522967	737	-403	-201	-51.72477	-11.16732	-178.4969	0	11.4	4003	0	0	0	0	0.04218902	0.812115	1	15	0.04	1800	124.0935	40.92394	-91.3937
523068	737	-403	-201	-51.72477	-11.16732	-178.4969	0	11.4	4003	0	0	0	0	0.04218902	0.812115	1	15	0.04	1800	124.0935	40.92394	-91.3937
523167	737	-403	-201	-51.72477	-11.16732	-178.4969	0	11.4	4003	0	0	0	0	0.04218902	0.812115	1	15	0.04	1800	124.0935	40.92394	-91.3937
523256	737	-403	-201	-51.72477	-11.16732	-178.4969	0	11.4	4003	0	0	0	0	0.04218902	0.812115	1	15	0.04	1800	124.0935	40.92394	-91.3937
523338	737	-403	-201	-51.72477	-11.16732	-178.4969	0	11.4	4003	0	0	0	0	0.04218902	0.812115	1	15	0.04	1800	124.0935	40.92394	-91.3937
523423	737	-403	-201	-51.72477	-11.16732	-178.4969	0	11.4	4003	0	0	0	0	0.04218902	0.812115	1	15	0.04	1800	124.0935	40.92394	-91.3937
523511	737	-403	-201	-51.72477	-11.16732	-178.4969	0	11.4	4003	0	0	0	0	0.04218902	0.812115	1	15	0.04	1800	124.0935	40.92394	-91.3937
523594	737	-403	-201	-51.72477	-11.16732	-178.4969	0	11.4	4003	0	0	0	0	0.04218902	0.812115	1	15	0.04	1800	124.0935	40.92394	-91.3937
523683	737	-403	-201	-51.72477	-11.16732	-178.4969	0	11.4	4003	0	0	0	0	0.04218902	0.812115	1	15	0.04	1800	124.0935	40.92394	-91.3937
523769	737	-403	-201	-51.72477	-11.16732	-178.4969	0	11.4	4003	0	0	0	0	0.04218902	0.812115	1	15	0.04	1800	124.0935	40.92394	-91.3937
523856	737	-403	-201	-51.72477	-11.16732	-178.4969	0	11.4	4003	0	0	0	0	0.04218902	0.812115	1	15	0.04	1800	124.0935	40.92394	-91.3937
523947	737	-403	-201	-51.72477	-11.16732	-178.4969	0	11.4	4003	0	0	0	0	0.04218902	0.812115	1	15	0.04	1800	124.0935	40.92394	-91.3937
524038	737	-403	-201	-51.72477	-11.16732	-178.4969	0	11.4	4003	0	0	0	0	0.04218902	0.812115	1	15	0.04	1800	124.0935	40.92394	-91.3937
524144	737	-403	-201	-51.72477	-11.16732	-178.4969	0	11.4	4003	0	0	0	0	0.04218902	0.812115	1	15	0.04	1800	124.0935	40.92394	-91.3937
524227	737	-403	-201	-51.72477	-11.16732	-178.4969	0	11.4	4003	0	0	0	0	0.04218902	0.812115	1	15	0.04	1800	124.0935	40.92394	-91.3937
524318	737	-403	-201	-51.72477	-11.16732	-178.4969	0	11.4	4003	0	0	0	0	0.04218902	0.812115	1	15	0.04	1800	124.0935	40.92394	-91.3937
524408	737	-403	-201	-51.72477	-11.16732	-178.4969	0	11.4	4003	0	0	0	0	0.04218902	0.812115	1	15	0.04	1800	124.0935	40.92394	-91.3937
524502	737	-403	-201	-51.72477	-11.16732	-178.4969	0	11.4	4003	0	0	0	0	0.04218902	0.812115	1	15	0.04	1800	124.0935	40.92394	-91.3937
524588	737	-403	-201	-51.72477	-11.16732	-178.4969	0	11.4	4003	0	0	0	0	0.04218902	0.812115	1	15	0.04	1800	124.0935	40.92394	-91.3937
524675	737	-403	-201	-51.72477	-11.16732	-178.4969	0	11.4	4003	0	0	0	0	0.04218902	0.812115	1	15	0.04	1800	124.0935	40.92394	-91.3937
524757	737	-403	-201	-51.72477	-11.16732	-178.4969	0	11.4	4003	0	0	0	0	0.04218902	0.812115	1	15	0.04	1800	124.0935	40.92394	-91.3937
524839	737	-403	-201	-51.72477	-11.16732	-178.4969	0	11.4	4003	0	0	0	0	0.04218902	0.812115	1	15	0.04	1800	124.0935	40.92394	-91.3937
524924	737	-403	-201	-51.72477	-11.16732	-178.4969	0	11.4	4003	0	0	0	0	0.04218902	0.812115	1	15	0.04	1800	124.0935	40.92394	-91.3937
525003	737	-403	-201	-51.72477	-11.16732	-178.4969	0	11.4	4003	0	0	0	0	0.04218902	0.812115	1	15	0.04	1800	124.0935	40.92394	-91.3937
525095	737	-403	-201	-51.72477	-11.16732	-178.4969	0	11.4	4003	0	0	0	0	0.04218902	0.812115	1	15	0.04	1800	124.0935	40.92394	-91.3937
525194	737	-403	-201	-51.72477	-11.16732	-178.4969	0	11.4	4003	0	0	0	0	0.04218902	0.812115	1	15	0.04	1800	124.0935	40.92394	-91.3937
525277	737	-403	-201	-51.72477	-11.16732	-178.4969	0	11.4	4003	0	0	0	0	0.04218902	0.812115	1	15	0.04	1800	124.0935	40.92394	-91.3937
525366	737	-403	-201	-51.72477	-11.16732	-178.4969	0	11.4	4003	0	0	0	0	0.04218902	0.812115	1	15	0.04	1800	124.0935	40.92394	-91.3937
525453	737	-403	-201	-51.72477	-11.16732	-178.4969	0	11.4	4003	0	0	0	0	0.04218902	0.812115	1	15	0.04	1800	124.0935	40.92394	-91.3937
525544	737	-403	-201	-51.72477	-11.16732	-178.4969	0	11.4	4003	0	0	0	0	0.04218902	0.812115	1	15	0.04	1800	124.0935	40.92394	-91.3937
525626	737	-403	-201	-51.72477	-11.16732	-178.4969	0	11.4	4003	0	0	0	0	0.04218902	0.812115	1	15	0.04	1800	124.0935	40.92394	-91.3937
525715	737	-403	-201	-51.72477	-11.16732	-178.4969	0	11.4	4003	0	0	0	0	0.04218902	0.812115	1	15	0.04	1800	124.0935	40.92394	-91.3937
525796	737	-403	-201	-51.72477	-11.16732	-178.4969	0	11.4	4003	0	0	0	0	0.04218902	0.812115	1	15	0.04	1800	124.0935	40.92394	-91.3937
525884	737	-403	-201	-51.72477	-11.16732	-178.4969	0	11.4	4003	0	0	0	0	0.04218902	0.812115	1	15	0.04	1800	124.0935	40.92394	-91.3937
525969	737	-403	-201	-51.72477	-11.16732	-178.4969	0	11.4	4003	0	0	0	0	0.04218902	0.812115	1	15	0.04	1800	124.0935	40.92394	-91.3937
526049	737	-403	-201	-51.72477	-11.16732	-178.4969	0	11.4	4003	0	0	0	0	0.04218902	0.812115	1	15	0.04	1800	124.0935	40.92394	-91.3937
526145	737	-403	-201	-51.72477	-11.16732	-178.4969	0	11.4	4003	0	0	0	0	0.04218902	0.812115	1	15	0.04	1800	124.0935	40.92394	-91.3937
526249	737	-403	-201	-51.72477	-11.16732	-178.4969	0	11.4	4003	0	0	0	0	0.04218902	0.812115	1	15	0.04	1800	124.0935	40.92394	-91.3937
526334	737	-403	-201	-51.72477	-11.16732	-178.4969	0	11.4	4003	0	0	0	0	0.04218902	0.812115	1	15	0.04	1800	124.0935	40.92394	-91.3937
526424	737	-403	-201	-51.72477	-11.16732	-178.4969	0	11.4	4003	0	0	0	0	0.04218902	0.812115	1	15	0.04	1800	124.0935	40.92394	-91.3937
526505	737	-403	-201	-51.72477	-11.16732	-178.4969	0	11.4	4003	0	0	0	0	0.04218902	0.812115	1	15	0.04	1800	124.0935	40.92394	-91.3937
526586	737	-403	-201	-51.72477	-11.16732	-178.4969	0	11.4	4003	0	0	0	0	0.04218902	0.812115	1	15	0.04	1800	124.0935	40.92394	-91.3937
526670	737	-403	-201	-51.72477	-11.16732	-178.4969	0	11.4	4003	0	0	0	0	0.04218902	0.812115	1	15	0.04	1800	124.0935	40.92394	-91.3937
526756	737	-403	-201	-51.72477	-11.16732	-178.4969	0	11.4	4003	0	0	0	0	0.04218902	0.812115	1	15	0.04	1800	124.0935	40.92394	-91.3937
526846	737	-403	-201	-51.72477	-11.16732	-178.4969	0	11.4	4003	0	0	0	0	0.04218902	0.812115	1	15	0.04	1800	124.0935	40.92394	-91.3937
526930	737	-403	-201	-51.72477	-11.16732	-178.4969	0	11.4	4003	0	0	0	0	0.04218902	0.812115	1	15	0.04	1800	124.0935	40.92394	-91.3937
527019	737	-403	-201	-51.72477	-11.16732	-178.4969	0	11.4	4003	0	0	0	0	0.04218902	0.812115	1	15	0.04	1800	124.0935	40.92394	-91.3937
527100	737	-403	-201	-51.72477	-11.16732	-178.4969	0	11.4	4003	0	0	0	0	0.04218902	0.812115	1	15	0.04	1800	124.0935	40.92394	-91.3937
527197	737	-403	-201	-51.72477	-11.16732	-178.4969	0	11.4	4003	0	0	0	0	0.04218902	0.812115	1	15	0.04	1800	124.0935	40.92394	-91.3937
527283	737	-403	-201	-51.72477	-11.16732	-178.4969	0	11.4	4003	0	0	0	0	0.04218902	0.812115	1	15	0.04	1800	124.0935	40.92394	-91.3937
527373	737	-403	-201	-51.72477	-11.16732	-178.4969	0	11.4	4003	0	0	0	0	0.04218902	0.812115	1	15	0.04	1800	124.0935	40.92394	-91.3937
527467	737	-403	-201	-51.72477	-11.16732	-178.4969	0	11.4	4003	0	0	0	0	0.04218902	0.812115	1	15	0.04	1800	124.0935	40.92394	-91.3937
527553	737	-403	-201	-51.72477	-11.16732	-178.4969	0	11.4	4003	0	0	0	0	0.04218902	0.812115	1	15	0.04	1800	124.0935	40.92394	-91.3937
527643	737	-403	-201	-51.72477	-11.16732	-178.4969	0	11.4	4003	0	0	0	0	0.04218902	0.812115	1	15	0.04	1800	124.0935	40.92394	-91.3937
527734	737	-403	-201	-51.72477	-11.16732	-178.4969	0	11.4	4003	0	0	0	0	0.04218902	0.812115	1	15	0.04	1800	124.0935	40.92394	-91.3937
527822	737	-403	-201	-51.72477	-11.16732	-178.4969	0	11.4	4003	0	0	0	0	0.04218902	0.812115	1	15	0.04	1800	124.0935	40.92394	-91.3937
527905	737	-403	-201	-51.72477	-11.16732	-178.4969	0	11.4	4003	0	0	0	0	0.04218902	0.812115	1	15	0.04	1800	124.0935	40.92394	-91.3937
527996	737	-403	-201	-51.72477	-11.16732	-178.4969	0	11.4	4003	0	0	0	0	0.04218902	0.812115	1	15	0.04	1800	124.0935	40.92394	-91.3937
528084	737	-403	-201	-51.72477	-11.16732	-178.4969	0	11.4	4003	0	0	0	0	0.04218902	0.812115	1	15	0.04	1800	124.0935	40.92394	-91.3937
528175	737	-403	-201	-51.72477	-11.16732	-178.4969	0	11.4	4003	0	0	0	0	0.04218902	0.812115	1	15	0.04	1800	124.0935	40.92394	-91.3937
528283	737	-403	-201	-51.72477	-11.16732	-178.4969	0	11.4	4003	0	0	0	0	0.04218902	0.812115	1	15	0.04	1800	124.0935	40.92394	-91.3937
528364	737	-403	-201	-51.72477	-11.16732	-178.4969	0	11.4	4003	0	0	0	0	0.04218902	0.812115	1	15	0.04	1800	124.0935	40.92394	-91.3937
528413	737	-403	-201	-51.72477	-11.16732	-178.4969	0	11.4	4003	0	0	0	0	0.04218902	0.812115	1	15	0.04	1800	124.0935	40.92394	-91.3937
528493	737	-403	-201	-51.72477	-11.16732	-178.4969	0	11.4	4003	0	0	0	0	0.04218902	0.812115	1	15	0.04	1800	124.0935	40.92394	-91.3937
528582	737	-403	-201	-51.72477	-11.16732	-178.4969	0	11.4	4003	0	0	0	0	0.04218902	0.812115	1	15	0.04	1800	124.0935	40.92394	-91.3937
528667	737	-403	-201	-51.72477	-11.16732	-178.4969	0	11.4	4003	0	0	0	0	0.04218902	0.812115	1	15	0.04	1800	124.0935	40.92394	-91.3937
528757	737	-403	-201	-51.72477	-11.16732	-178.4969	0	11.4	4003	0	0	0	0	0.04218902	0.812115	1	15	0.04	1800	124.0935	40.92394	-91.3937
528844	737	-403	-201	-51.72477	-11.16732	-178.4969	0	11.4	4003	0	0	0	0	0.04218902	0.812115	1	15	0.04	1800	124.0935	40.92394	-91.3937
528929	737	-403	-201	-51.72477	-11.16732	-178.4969	0	11.4	4003	0	0	0	0	0.04218902	0.812115	1	15	0.04	1800	124.0935	40.92394	-91.3937
528966	737	-403	-201	-51.72477	-11.16732	-178.4969	0	11.4	4003	0	0	0	0	0.04218902	0.812115	1	15	0.04	1800	124.0935	40.92394	-91.3937
529019	737	-403	-201	-51.72477	-11.16732	-178.4969	0	11.4	4003	0	0	0	0	0.04218902	0.812115	1	15	0.04	1800	124.0935	40.92394	-91.3937
529117	737	-403	-201	-51.72477	-11.16732	-178.4969	0	11.4	4003	0	0	0	0	0.04218902	0.812115	1	15	0.04	1800	124.0935	40.92394	-91.3937
529211	737	-403	-201	-51.72477	-11.16732	-178.4969	0	11.4	4003	0	0	0	0	0.04218902	0.812115	1	15	0.04	1800	124.0935	40.92394	-91.3937
529297	737	-403	-201	-51.72477	-11.16732	-178.4969	0	11.4	4003	0	0	0	0	0.04218902	0.812115	1	15	0.04	1800	124.0935	40.92394	-91.3937
529387	737	-403	-201	-51.72477	-11.16732	-178.4969	0	11.4	4003	0	0	0	0	0.04218902	0.812115	1	15	0.04	1800	124.0935	40.92394	-91.3937
529477	737	-403	-201	-51.72477	-11.16732	-178.4969	0	11.4	4003	0	0	0	0	0.04218902	0.812115	1	15	0.04	1800	124.0935	40.92394	-91.3937
529564	737	-403	-201	-51.72477	-11.16732	-178.4969	0	11.4	4003	0	0	0	0	0.04218902	0.812115	1	15	0.04	1800	124.0935	40.92394	-91.3937
529654	737	-403	-201	-51.72477	-11.16732	-178.4969	0	11.4	4003	0	0	0	0	0.04218902	0.812115	1	15	0.04	1800	124.0935	40.92394	-91.3937
529741	737	-403	-201	-51.72477	-11.16732	-178.4969	0	11.4	4003	0	0	0	0	0.04218902	0.812115	1	15	0.04	1800	124.0935	40.92394	-91.3937
529832	737	-403	-201	-51.72477	-11.16732	-178.4969	0	11.4	4003	0	0	0	0	0.04218902	0.812115	1	15	0.04	1800	124.0935	40.92394	-91.3937
529914	737	-403	-201	-51.72477	-11.16732	-178.4969	0	11.4	4003	0	0	0	0	0.04218902	0.812115	1	15	0.04	1800	124.0935	40.92394	-91.3937
530010	737	-403	-201	-51.72477	-11.16732	-178.4969	0	11.4	4003	0	0	0	0	0.04218902	0.812115	1	15	0.04	1800	124.0935	40.92394	-91.3937
530111	737	-403	-201	-51.72477	-11.16732	-178.4969	0	11.4	4003	0	0	0	0	0.04218902	0.812115	1	15	0.04	1800	124.0935	40.92394	-91.3937
530188	737	-403	-201	-51.72477	-11.16732	-178.4969	0	11.4	4003	0	0	0	0	0.04218902	0.812115	1	15	0.04	1800	124.0935	40.92394	-91.3937
530270	737	-403	-201	-51.72477	-11.16732	-178.4969	0	11.4	4003	0	0	0	0	0.04218902	0.812115	1	15	0.04	1800	124.0935	40.92394	-91.3937
530360	737	-403	-201	-51.72477	-11.16732	-178.4969	0	11.4	4003	0	0	0	0	0.04218902	0.812115	1	15	0.04	1800	124.0935	40.92394	-91.3937
530443	737	-403	-201	-51.72477	-11.16732	-178.4969	0	11.4	4003	0	0	0	0	0.04218902	0.812115	1	15	0.04	1800	124.0935	40.92394	-91.3937
530532	737	-403	-201	-51.72477	-11.16732	-178.4969	0	11.4	4003	0	0	0	0	0.04218902	0.812115	1	15	0.04	1800	124.0935	40.92394	-91.3937
530619	737	-403	-201	-51.72477	-11.16732	-178.4969	0	11.4	4003	0	0	0	0	0.04218902	0.812115	1	15	0.04	1800	124.0935	40.92394	-91.3937
530707	737	-403	-201	-51.72477	-11.16732	-178.4969	0	11.4	4003	0	0	0	0	0.04218902	0.812115	1	15	0.04	1800	124.0935	40.92394	-91.3937
530793	737	-403	-201	-51.72477	-11.16732	-178.4969	0	11.4	4003	0	0	0	0	0.04218902	0.812115	1	15	0.04	1800	124.0935	40.92394	-91.3937
530878	737	-403	-201	-51.72477	-11.16732	-178.4969	0	11.4	4003	0	0	0	0	0.04218902	0.812115	1	15	0.04	1800	124.0935	40.92394	-91.3937
530965	737	-403	-201	-51.72477	-11.16732	-178.4969	0	11.4	4003	0	0	0	0	0.04218902	0.812115	1	15	0.04	1800	124.0935	40.92394	-91.3937
531062	737	-403	-201	-51.72477	-11.16732	-178.4969	0	11.4	4003	0	0	0	0	0.04218902	0.812115	1	15	0.04	1800	124.0935	40.92394	-91.3937
531160	737	-403	-201	-51.72477	-11.16732	-178.4969	0	11.4	4003	0	0	0	0	0.04218902	0.812115	1	15	0.04	1800	124.0935	40.92394	-91.3937
531185	737	-403	-201	-51.72477	-11.16732	-178.4969	0	11.4	4003	0	0	0	0	0.04218902	0.812115	1	15	0.04	1800	124.0935	40.92394	-91.3937
531243	737	-403	-201	-51.72477	-11.16732	-178.4969	0	11.4	4003	0	0	0	0	0.04218902	0.812115	1	15	0.04	1800	124.0935	40.92394	-91.3937
531331	737	-403	-201	-51.72477	-11.16732	-178.4969	0	11.4	4003	0	0	0	0	0.04218902	0.812115	1	15	0.04	1800	124.0935	40.92394	-91.3937
531421	737	-403	-201	-51.72477	-11.16732	-178.4969	0	11.4	4003	0	0	0	0	0.04218902	0.812115	1	15	0.04	1800	124.0935	40.92394	-91.3937
531506	737	-403	-201	-51.72477	-11.16732	-178.4969	0	11.4	4003	0	0	0	0	0.04218902	0.812115	1	15	0.04	1800	124.0935	40.92394	-91.3937
531596	737	-403	-201	-51.72477	-11.16732	-178.4969	0	11.4	4003	0	0	0	0	0.04218902	0.812115	1	15	0.04	1800	124.0935	40.92394	-91.3937
531682	737	-403	-201	-51.72477	-11.16732	-178.4969	0	11.4	4003	0	0	0	0	0.04218902	0.812115	1	15	0.04	1800	124.0935	40.92394	-91.3937
531768	737	-403	-201	-51.72477	-11.16732	-178.4969	0	11.4	4003	0	0	0	0	0.04218902	0.812115	1	15	0.04	1800	124.0935	40.92394	-91.3937
531845	737	-403	-201	-51.72477	-11.16732	-178.4969	0	11.4	4003	0	0	0	0	0.04218902	0.812115	1	15	0.04	1800	124.0935	40.92394	-91.3937
531932	737	-403	-201	-51.72477	-11.16732	-178.4969	0	11.4	4003	0	0	0	0	0.04218902	0.812115	1	15	0.04	1800	124.0935	40.92394	-91.3937
532026	737	-403	-201	-51.72477	-11.16732	-178.4969	0	11.4	4003	0	0	0	0	0.04218902	0.812115	1	15	0.04	1800	124.0935	40.92394	-91.3937
532129	737	-403	-201	-51.72477	-11.16732	-178.4969	0	11.4	4003	0	0	0	0	0.04218902	0.812115	1	15	0.04	1800	124.0935	40.92394	-91.3937
532211	737	-403	-201	-51.72477	-11.16732	-178.4969	0	11.4	4003	0	0	0	0	0.04218902	0.812115	1	15	0.04	1800	124.0935	40.92394	-91.3937
532284	737	-403	-201	-51.72477	-11.16732	-178.4969	0	11.4	4003	0	0	0	0	0.04218902	0.812115	1	15	0.04	1800	124.0935	40.92394	-91.3937
532370	737	-403	-201	-51.72477	-11.16732	-178.4969	0	11.4	4003	0	0	0	0	0.04218902	0.812115	1	15	0.04	1800	124.0935	40.92394	-91.3937
532448	737	-403	-201	-51.72477	-11.16732	-178.4969	0	11.4	4003	0	0	0	0	0.04218902	0.812115	1	15	0.04	1800	124.0935	40.92394	-91.3937
532529	737	-403	-201	-51.72477	-11.16732	-178.4969	0	11.4	4003	0	0	0	0	0.04218902	0.812115	1	15	0.04	1800	124.0935	40.92394	-91.3937
532606	737	-403	-201	-51.72477	-11.16732	-178.4969	0	11.4	4003	0	0	0	0	0.04218902	0.812115	1	15	0.04	1800	124.0935	40.92394	-91.3937
532686	737	-403	-201	-51.72477	-11.16732	-178.4969	0	11.4	4003	0	0	0	0	0.04218902	0.812115	1	15	0.04	1800	124.0935	40.92394	-91.3937
532775	737	-403	-201	-51.72477	-11.16732	-178.4969	0	11.4	4003	0	0	0	0	0.04218902	0.812115	1	15	0.04	1800	124.0935	40.92394	-91.3937
532863	737	-403	-201	-51.72477	-11.16732	-178.4969	0	11.4	4003	0	0	0	0	0.04218902	0.812115	1	15	0.04	1800	124.0935	40.92394	-91.3937
532963	737	-403	-201	-51.72477	-11.16732	-178.4969	0	11.4	4003	0	0	0	0	0.04218902	0.812115	1	15	0.04	1800	124.0935	40.92394	-91.3937
533059	737	-403	-201	-51.72477	-11.16732	-178.4969	0	11.4	4003	0	0	0	0	0.04218902	0.812115	1	15	0.04	1800	124.0935	40.92394	-91.3937
533144	737	-403	-201	-51.72477	-11.16732	-178.4969	0	11.4	4003	0	0	0	0	0.04218902	0.812115	1	15	0.04	1800	124.0935	40.92394	-91.3937
533228	737	-403	-201	-51.72477	-11.16732	-178.4969	0	11.4	4003	0	0	0	0	0.04218902	0.812115	1	15	0.04	1800	124.0935	40.92394	-91.3937
533311	737	-403	-201	-51.72477	-11.16732	-178.4969	0	11.4	4003	0	0	0	0	0.04218902	0.812115	1	15	0.04	1800	124.0935	40.92394	-91.3937
533402	737	-403	-201	-51.72477	-11.16732	-178.4969	0	11.4	4003	0	0	0	0	0.04218902	0.812115	1	15	0.04	1800	124.0935	40.92394	-91.3937
533486	737	-403	-201	-51.72477	-11.16732	-178.4969	0	11.4	4003	0	0	0	0	0.04218902	0.812115	1	15	0.04	1800	124.0935	40.92394	-91.3937
533553	737	-403	-201	-51.72477	-11.16732	-178.4969	0	11.4	4003	0	0	0	0	0.04218902	0.812115	1	15	0.04	1800	124.0935	40.92394	-91.3937
533643	737	-403	-201	-51.72477	-11.16732	-178.4969	0	11.4	4003	0	0	0	0	0.04218902	0.812115	1	15	0.04	1800	124.0935	40.92394	-91.3937
533706	737	-403	-201	-51.72477	-11.16732	-178.4969	0	11.4	4003	0	0	0	0	0.04218902	0.812115	1	15	0.04	1800	124.0935	40.92394	-91.3937
