time(ms)	gyro_x(deg/s)	gyro_y(deg/s)	gyro_z(deg/s)	orientation_roll(deg)	orientation_pitch(deg)	orientation_yaw(deg)	throttle	battery(V)	loop_time(uS)	pid_output_roll	pid_output_pitch	pid_output_yaw	pid_output_throttle	ultrasonic_alt	baro_alt	flight_mode	p_gain_altitude	i_gain_altitude	d_gain_altitude	compass_heading	latitude	longitude
5466437	-4	-3	2	-3.13511	-1.298905	344.58	0	12.76	0	0	0	5	5	0.02	0.02415499	1	10	0.08	2800	339.8115	40.92397	-91.39366
5466548	-1	0	-2	-3.181525	-1.311611	344.5789	0	12.76	0	0	0	5	5	0.02	0.01658876	1	10	0.08	2800	339.7814	40.92397	-91.39366
5466642	-2	3	2	-3.267707	-1.333851	344.5774	0	12.76	0	0	0	5	5	0.02	0.009577808	1	10	0.08	2800	339.5159	40.92397	-91.39366
5466759	-3	2	0	-3.32511	-1.352446	344.5765	0	12.76	0	0	0	5	5	0.02	-0.002659559	1	10	0.08	2800	339.5867	40.92397	-91.39366
5466869	-2	0	-1	-3.382725	-1.364606	344.5766	0	12.76	0	0	0	5	5	0.02	-0.01407412	1	10	0.08	2800	339.7059	40.92397	-91.39366
5466964	0	3	-2	-3.433038	-1.380809	344.576	0	12.7	0	0	0	5	5	0.02	-0.01886253	1	10	0.08	2800	339.304	40.92397	-91.39366
5467096	-4	0	-4	-3.479979	-1.394508	344.5763	0	12.7	0	0	0	5	5	0.02	-0.0132134	1	10	0.08	2800	339.3785	40.92397	-91.39366
5467184	1	7	0	-3.543381	-1.412065	344.5759	0	12.7	0	0	0	5	5	0.02	-0.01383551	1	10	0.08	2800	339.116	40.92397	-91.39366
5467279	-6	-1	0	-3.571579	-1.418213	344.5771	0	12.7	0	0	0	5	5	0.02	-0.01312368	1	10	0.08	2800	339.188	40.92397	-91.39366
5467389	0	6	2	-3.600868	-1.426868	344.5762	0	12.7	0	0	0	5	5	0.02	-0.01166055	1	10	0.08	2800	338.44	40.92397	-91.39366
5467484	-3	5	-1	-3.655157	-1.439849	344.5755	0	12.7	0	0	0	5	5	0.02	-0.01184744	1	10	0.08	2800	338.4729	40.92397	-91.39366
5467596	2	-3	0	-3.691347	-1.45092	344.5747	0	12.7	0	0	0	5	5	0.02	-0.02138971	1	10	0.08	2800	338.3088	40.92397	-91.39366
5467691	0	0	1	-3.728679	-1.463168	344.5731	0	12.7	0	0	0	5	5	0.02	-0.02172296	1	10	0.08	2800	338.2373	40.92397	-91.39366
5467808	2	3	1	-3.761916	-1.475953	344.5708	0	12.7	0	0	0	5	5	0.02	-0.02101445	1	10	0.08	2800	338.6267	40.92397	-91.39366
5467902	9	12	-3	-3.802408	-1.482388	344.5711	0	12.76	0	0	0	5	5	0.02	-0.02181398	1	10	0.08	2800	338.5689	40.92397	-91.39366
5468035	1	2	2	-3.832393	-1.492033	344.5706	0	12.76	0	0	0	5	5	0.02	-0.02562814	1	10	0.08	2800	338.5252	40.92397	-91.39366
5468110	-8	2	8	-3.856303	-1.496802	344.5704	0	12.76	0	0	0	5	5	0.02	-0.02674741	1	10	0.08	2800	338.6191	40.92397	-91.39366
5468224	-2	-4	1	-3.875174	-1.498945	344.57	0	12.76	0	0	0	5	5	0.02	-0.02598985	1	10	0.08	2800	338.5768	40.92397	-91.39366
5468319	4	3	5	-3.902183	-1.509419	344.567	0	12.76	0	0	0	5	5	0.02	-0.02844867	1	10	0.08	2800	338.1501	40.92397	-91.39366
5468429	2	2	4	-3.930938	-1.517963	344.5647	0	12.76	0	0	0	5	5	0.02	-0.02314892	1	10	0.08	2800	338.1501	40.92397	-91.39366
5468528	9	-16	-12	-3.943182	-1.523534	344.5656	0	12.76	0	0	0	5	5	0.02	-0.01885262	1	10	0.08	2800	337.6307	40.92397	-91.39366
5468633	-4	-3	-8	-3.970072	-1.525786	344.5629	0	12.76	0	0	0	5	5	0.02	-0.01075697	1	10	0.08	2800	337.9247	40.92397	-91.39366
5468727	12	-4	-6	-3.992573	-1.527719	344.5653	0	12.76	0	0	0	5	5	0.02	-0.004842652	1	10	0.08	2800	337.8153	40.92397	-91.39366
5468841	4	0	2	-4.013346	-1.538458	344.5653	0	12.76	0	0	0	5	5	0.02	-0.0006607599	1	10	0.08	2800	337.7341	40.92397	-91.39366
5468936	-1	-12	2	-4.024484	-1.544081	344.563	0	12.76	0	0	0	5	5	0.02	0.003047968	1	10	0.08	2800	338.0061	40.92397	-91.39366
5469051	-3	-1	0	-4.045561	-1.546001	344.5656	0	12.76	0	0	0	5	5	0.02	0.01122535	1	10	0.08	2800	338.0326	40.92397	-91.39366
5469145	1	0	0	-4.071425	-1.554612	344.5655	0	12.76	0	0	0	5	5	0.02	0.009246559	1	10	0.08	2800	337.6586	40.92397	-91.39366
5469254	1	4	2	-4.094462	-1.557747	344.5625	0	12.76	0	0	0	5	5	0.02	0.008978804	1	10	0.08	2800	338.0658	40.92397	-91.39366
5469347	-10	0	2	-4.107566	-1.558037	344.5618	0	12.76	0	0	0	5	5	0.02	0.009963234	1	10	0.08	2800	337.7277	40.92397	-91.39366
5469456	-2	2	-2	-4.127033	-1.56182	344.5614	0	12.76	0	0	0	5	5	0.02	0.01969186	1	10	0.08	2800	337.2448	40.92397	-91.39366
5469566	-15	40	-1	-4.181495	-1.59151	344.5554	0	12.76	0	0	0	5	5	0.02	0.02856156	1	10	0.08	2800	337.7576	40.92397	-91.39366
5469659	27	-103	-76	-4.18472	-1.637688	344.5371	0	12.76	0	0	0	5	5	0.02	0.03083479	1	10	0.08	2800	338.1405	40.92397	-91.39366
5469775	-30	59	51	-4.09973	-1.490042	344.5782	0	12.76	0	0	0	5	5	0.02	0.03448375	1	10	0.08	2800	337.6348	40.92397	-91.39366
5469863	-131	163	100	-4.274479	-1.762831	344.525	0	12.76	0	0	0	5	5	0.02	0.03283172	1	10	0.08	2800	338.3279	40.92397	-91.39366
5469972	264	-248	-191	-4.133283	-1.548369	344.5734	0	12.76	0	0	0	5	5	0.02	0.02716884	1	10	0.08	2800	337.6971	40.92398	-91.39366
5470120	-117	144	37	-4.163672	-1.558148	344.5599	0	12.76	0	0	0	5	5	0.02	0.02396926	1	10	0.08	2800	337.7409	40.92398	-91.39366
5470180	-102	104	117	-4.259327	-1.680847	344.5346	0	12.76	0	0	0	5	5	0.02	0.02583896	1	10	0.08	2800	337.7409	40.92398	-91.39366
5470320	-489	607	10	-4.675587	-2.287451	344.5202	0	12.76	0	0	0	5	5	0.02	0.03082048	1	10	0.08	2800	337.0378	40.92398	-91.39366
5470432	-187	353	-230	-4.346251	-1.720674	344.5406	0	12.76	0	0	0	5	5	0.02	0.03410301	1	10	0.08	2800	337.58	40.92398	-91.39366
5470476	340	-603	-14	-4.294302	-1.698702	344.5473	0	12.76	0	0	0	5	5	0.02	0.03198742	1	10	0.08	2800	337.58	40.92398	-91.39366
5470613	-176	149	87	-4.20806	-1.553387	344.5944	0	12.76	0	0	0	5	5	0.02	0.03357109	1	10	0.08	2800	337.2913	40.92398	-91.39366
5470730	38	-48	-8	-4.229616	-1.566501	344.5844	0	12.76	0	0	0	5	5	0.02	0.04512835	1	10	0.08	2800	337.3456	40.92398	-91.39366
5470788	-20	6	13	-4.323685	-1.687474	344.5504	0	12.76	0	0	0	5	5	0.02	0.04736295	1	10	0.08	2800	337.3939	40.92398	-91.39366
5470911	126	-73	-28	-4.277548	-1.60901	344.5536	0	12.76	0	0	0	5	5	0.02	0.06227633	1	10	0.08	2800	337.2334	40.92398	-91.39366
5471044	-258	355	-6	-4.430727	-1.832489	344.532	0	12.76	0	0	0	5	5	0.02	0.07410984	1	10	0.08	2800	337.4142	40.92398	-91.39366
5471158	-57	8	-164	-4.493246	-1.820877	344.5023	0	12.76	0	0	0	5	5	0.02	0.09941266	1	10	0.08	2800	337.6536	40.92398	-91.39366
5471235	-305	450	-120	-4.760384	-2.193889	344.4716	0	12.76	0	0	0	5	5	0.02	0.1107547	1	10	0.08	2800	337.7344	40.92398	-91.39366
5471300	-111	316	-76	-4.763476	-2.215444	344.4328	0	12.76	0	0	0	5	5	0.02	0.1141388	1	10	0.08	2800	337.205	40.92398	-91.39366
5471401	414	-424	-28	-4.475579	-1.90414	344.4833	0	12.76	0	0	0	5	5	0.02	0.1305628	1	10	0.08	2800	338.0963	40.92398	-91.39366
5471521	-79	6	119	-4.6379	-2.060173	344.6195	0	12.76	0	0	0	5	5	0.02	0.1315462	1	10	0.08	2800	338.3025	40.92398	-91.39366
5471681	-201	120	-48	-4.529567	-1.715303	344.5299	0	12.76	0	0	0	5	5	0.02	0.1097108	1	10	0.08	2800	337.5374	40.92398	-91.39366
5471774	-513	752	132	-4.653615	-1.900476	344.505	0	12.76	0	0	0	5	5	0.02	0.09888126	1	10	0.08	2800	337.4934	40.92398	-91.39366
5471849	657	-626	-435	-4.54778	-1.802326	344.477	0	12.76	0	0	0	5	5	0.02	0.09681517	1	10	0.08	2800	337.6921	40.92398	-91.39366
5471946	103	-104	-48	-4.451257	-1.703251	344.4893	0	12.76	0	0	0	5	5	0.02	0.08268653	1	10	0.08	2800	337.6215	40.92398	-91.39366
5472027	-63	-33	-85	-4.358619	-1.570547	344.571	0	12.76	0	0	0	5	5	0.02	0.07541081	1	10	0.08	2800	337.2593	40.92398	-91.39366
5472112	39	93	89	-4.384847	-1.62242	344.5312	0	12.76	0	0	0	5	5	0.02	0.07099621	1	10	0.08	2800	337.2821	40.92398	-91.39366
5472208	39	93	89	-4.384847	-1.62242	344.5312	0	12.76	0	0	0	5	5	0.02	0.07099621	1	10	0.08	2800	337.2821	40.92398	-91.39366
5472289	39	93	89	-4.384847	-1.62242	344.5312	0	12.76	0	0	0	5	5	0.02	0.07099621	1	10	0.08	2800	337.2821	40.92398	-91.39366
5472392	39	93	89	-4.384847	-1.62242	344.5312	0	12.76	0	0	0	5	5	0.02	0.07099621	1	10	0.08	2800	337.2821	40.92398	-91.39366
5472472	39	93	89	-4.384847	-1.62242	344.5312	0	12.76	0	0	0	5	5	0.02	0.07099621	1	10	0.08	2800	337.2821	40.92398	-91.39366
5472556	39	93	89	-4.384847	-1.62242	344.5312	0	12.76	0	0	0	5	5	0.02	0.07099621	1	10	0.08	2800	337.2821	40.92398	-91.39366
5472651	39	93	89	-4.384847	-1.62242	344.5312	0	12.76	0	0	0	5	5	0.02	0.07099621	1	10	0.08	2800	337.2821	40.92398	-91.39366
5472748	39	93	89	-4.384847	-1.62242	344.5312	0	12.76	0	0	0	5	5	0.02	0.07099621	1	10	0.08	2800	337.2821	40.92398	-91.39366
5472828	39	93	89	-4.384847	-1.62242	344.5312	0	12.76	0	0	0	5	5	0.02	0.07099621	1	10	0.08	2800	337.2821	40.92398	-91.39366
5472927	39	93	89	-4.384847	-1.62242	344.5312	0	12.76	0	0	0	5	5	0.02	0.07099621	1	10	0.08	2800	337.2821	40.92398	-91.39366
5473007	39	93	89	-4.384847	-1.62242	344.5312	0	12.76	0	0	0	5	5	0.02	0.07099621	1	10	0.08	2800	337.2821	40.92398	-91.39366
5473102	39	93	89	-4.384847	-1.62242	344.5312	0	12.76	0	0	0	5	5	0.02	0.07099621	1	10	0.08	2800	337.2821	40.92398	-91.39366
5473181	39	93	89	-4.384847	-1.62242	344.5312	0	12.76	0	0	0	5	5	0.02	0.07099621	1	10	0.08	2800	337.2821	40.92398	-91.39366
5473276	39	93	89	-4.384847	-1.62242	344.5312	0	12.76	0	0	0	5	5	0.02	0.07099621	1	10	0.08	2800	337.2821	40.92398	-91.39366
5473356	39	93	89	-4.384847	-1.62242	344.5312	0	12.76	0	0	0	5	5	0.02	0.07099621	1	10	0.08	2800	337.2821	40.92398	-91.39366
5473458	39	93	89	-4.384847	-1.62242	344.5312	0	12.76	0	0	0	5	5	0.02	0.07099621	1	10	0.08	2800	337.2821	40.92398	-91.39366
5473539	39	93	89	-4.384847	-1.62242	344.5312	0	12.76	0	0	0	5	5	0.02	0.07099621	1	10	0.08	2800	337.2821	40.92398	-91.39366
5473633	39	93	89	-4.384847	-1.62242	344.5312	0	12.76	0	0	0	5	5	0.02	0.07099621	1	10	0.08	2800	337.2821	40.92398	-91.39366
5473716	39	93	89	-4.384847	-1.62242	344.5312	0	12.76	0	0	0	5	5	0.02	0.07099621	1	10	0.08	2800	337.2821	40.92398	-91.39366
5473815	39	93	89	-4.384847	-1.62242	344.5312	0	12.76	0	0	0	5	5	0.02	0.07099621	1	10	0.08	2800	337.2821	40.92398	-91.39366
5473898	39	93	89	-4.384847	-1.62242	344.5312	0	12.76	0	0	0	5	5	0.02	0.07099621	1	10	0.08	2800	337.2821	40.92398	-91.39366
5473978	39	93	89	-4.384847	-1.62242	344.5312	0	12.76	0	0	0	5	5	0.02	0.07099621	1	10	0.08	2800	337.2821	40.92398	-91.39366
5474073	39	93	89	-4.384847	-1.62242	344.5312	0	12.76	0	0	0	5	5	0.02	0.07099621	1	10	0.08	2800	337.2821	40.92398	-91.39366
5474154	39	93	89	-4.384847	-1.62242	344.5312	0	12.76	0	0	0	5	5	0.02	0.07099621	1	10	0.08	2800	337.2821	40.92398	-91.39366
5474249	39	93	89	-4.384847	-1.62242	344.5312	0	12.76	0	0	0	5	5	0.02	0.07099621	1	10	0.08	2800	337.2821	40.92398	-91.39366
5474344	39	93	89	-4.384847	-1.62242	344.5312	0	12.76	0	0	0	5	5	0.02	0.07099621	1	10	0.08	2800	337.2821	40.92398	-91.39366
5474423	39	93	89	-4.384847	-1.62242	344.5312	0	12.76	0	0	0	5	5	0.02	0.07099621	1	10	0.08	2800	337.2821	40.92398	-91.39366
5474525	39	93	89	-4.384847	-1.62242	344.5312	0	12.76	0	0	0	5	5	0.02	0.07099621	1	10	0.08	2800	337.2821	40.92398	-91.39366
5474619	39	93	89	-4.384847	-1.62242	344.5312	0	12.76	0	0	0	5	5	0.02	0.07099621	1	10	0.08	2800	337.2821	40.92398	-91.39366
5474701	39	93	89	-4.384847	-1.62242	344.5312	0	12.76	0	0	0	5	5	0.02	0.07099621	1	10	0.08	2800	337.2821	40.92398	-91.39366
5474800	39	93	89	-4.384847	-1.62242	344.5312	0	12.76	0	0	0	5	5	0.02	0.07099621	1	10	0.08	2800	337.2821	40.92398	-91.39366
5474883	39	93	89	-4.384847	-1.62242	344.5312	0	12.76	0	0	0	5	5	0.02	0.07099621	1	10	0.08	2800	337.2821	40.92398	-91.39366
5474966	39	93	89	-4.384847	-1.62242	344.5312	0	12.76	0	0	0	5	5	0.02	0.07099621	1	10	0.08	2800	337.2821	40.92398	-91.39366
5475062	39	93	89	-4.384847	-1.62242	344.5312	0	12.76	0	0	0	5	5	0.02	0.07099621	1	10	0.08	2800	337.2821	40.92398	-91.39366
5475142	39	93	89	-4.384847	-1.62242	344.5312	0	12.76	0	0	0	5	5	0.02	0.07099621	1	10	0.08	2800	337.2821	40.92398	-91.39366
5475239	39	93	89	-4.384847	-1.62242	344.5312	0	12.76	0	0	0	5	5	0.02	0.07099621	1	10	0.08	2800	337.2821	40.92398	-91.39366
5475317	39	93	89	-4.384847	-1.62242	344.5312	0	12.76	0	0	0	5	5	0.02	0.07099621	1	10	0.08	2800	337.2821	40.92398	-91.39366
5475410	39	93	89	-4.384847	-1.62242	344.5312	0	12.76	0	0	0	5	5	0.02	0.07099621	1	10	0.08	2800	337.2821	40.92398	-91.39366
5475494	39	93	89	-4.384847	-1.62242	344.5312	0	12.76	0	0	0	5	5	0.02	0.07099621	1	10	0.08	2800	337.2821	40.92398	-91.39366
5475588	39	93	89	-4.384847	-1.62242	344.5312	0	12.76	0	0	0	5	5	0.02	0.07099621	1	10	0.08	2800	337.2821	40.92398	-91.39366
5475670	39	93	89	-4.384847	-1.62242	344.5312	0	12.76	0	0	0	5	5	0.02	0.07099621	1	10	0.08	2800	337.2821	40.92398	-91.39366
5475752	39	93	89	-4.384847	-1.62242	344.5312	0	12.76	0	0	0	5	5	0.02	0.07099621	1	10	0.08	2800	337.2821	40.92398	-91.39366
5475848	39	93	89	-4.384847	-1.62242	344.5312	0	12.76	0	0	0	5	5	0.02	0.07099621	1	10	0.08	2800	337.2821	40.92398	-91.39366
5475929	39	93	89	-4.384847	-1.62242	344.5312	0	12.76	0	0	0	5	5	0.02	0.07099621	1	10	0.08	2800	337.2821	40.92398	-91.39366
5476028	39	93	89	-4.384847	-1.62242	344.5312	0	12.76	0	0	0	5	5	0.02	0.07099621	1	10	0.08	2800	337.2821	40.92398	-91.39366
5476109	39	93	89	-4.384847	-1.62242	344.5312	0	12.76	0	0	0	5	5	0.02	0.07099621	1	10	0.08	2800	337.2821	40.92398	-91.39366
5476202	39	93	89	-4.384847	-1.62242	344.5312	0	12.76	0	0	0	5	5	0.02	0.07099621	1	10	0.08	2800	337.2821	40.92398	-91.39366
5476285	39	93	89	-4.384847	-1.62242	344.5312	0	12.76	0	0	0	5	5	0.02	0.07099621	1	10	0.08	2800	337.2821	40.92398	-91.39366
5476382	39	93	89	-4.384847	-1.62242	344.5312	0	12.76	0	0	0	5	5	0.02	0.07099621	1	10	0.08	2800	337.2821	40.92398	-91.39366
5476462	39	93	89	-4.384847	-1.62242	344.5312	0	12.76	0	0	0	5	5	0.02	0.07099621	1	10	0.08	2800	337.2821	40.92398	-91.39366
5476556	39	93	89	-4.384847	-1.62242	344.5312	0	12.76	0	0	0	5	5	0.02	0.07099621	1	10	0.08	2800	337.2821	40.92398	-91.39366
5476633	39	93	89	-4.384847	-1.62242	344.5312	0	12.76	0	0	0	5	5	0.02	0.07099621	1	10	0.08	2800	337.2821	40.92398	-91.39366
5476734	39	93	89	-4.384847	-1.62242	344.5312	0	12.76	0	0	0	5	5	0.02	0.07099621	1	10	0.08	2800	337.2821	40.92398	-91.39366
5476832	39	93	89	-4.384847	-1.62242	344.5312	0	12.76	0	0	0	5	5	0.02	0.07099621	1	10	0.08	2800	337.2821	40.92398	-91.39366
5476909	39	93	89	-4.384847	-1.62242	344.5312	0	12.76	0	0	0	5	5	0.02	0.07099621	1	10	0.08	2800	337.2821	40.92398	-91.39366
5477003	39	93	89	-4.384847	-1.62242	344.5312	0	12.76	0	0	0	5	5	0.02	0.07099621	1	10	0.08	2800	337.2821	40.92398	-91.39366
5477087	39	93	89	-4.384847	-1.62242	344.5312	0	12.76	0	0	0	5	5	0.02	0.07099621	1	10	0.08	2800	337.2821	40.92398	-91.39366
5477183	39	93	89	-4.384847	-1.62242	344.5312	0	12.76	0	0	0	5	5	0.02	0.07099621	1	10	0.08	2800	337.2821	40.92398	-91.39366
5477264	39	93	89	-4.384847	-1.62242	344.5312	0	12.76	0	0	0	5	5	0.02	0.07099621	1	10	0.08	2800	337.2821	40.92398	-91.39366
5477357	39	93	89	-4.384847	-1.62242	344.5312	0	12.76	0	0	0	5	5	0.02	0.07099621	1	10	0.08	2800	337.2821	40.92398	-91.39366
5477434	39	93	89	-4.384847	-1.62242	344.5312	0	12.76	0	0	0	5	5	0.02	0.07099621	1	10	0.08	2800	337.2821	40.92398	-91.39366
5477527	39	93	89	-4.384847	-1.62242	344.5312	0	12.76	0	0	0	5	5	0.02	0.07099621	1	10	0.08	2800	337.2821	40.92398	-91.39366
5477604	39	93	89	-4.384847	-1.62242	344.5312	0	12.76	0	0	0	5	5	0.02	0.07099621	1	10	0.08	2800	337.2821	40.92398	-91.39366
5477703	39	93	89	-4.384847	-1.62242	344.5312	0	12.76	0	0	0	5	5	0.02	0.07099621	1	10	0.08	2800	337.2821	40.92398	-91.39366
5477784	39	93	89	-4.384847	-1.62242	344.5312	0	12.76	0	0	0	5	5	0.02	0.07099621	1	10	0.08	2800	337.2821	40.92398	-91.39366
5477877	39	93	89	-4.384847	-1.62242	344.5312	0	12.76	0	0	0	5	5	0.02	0.07099621	1	10	0.08	2800	337.2821	40.92398	-91.39366
5477956	39	93	89	-4.384847	-1.62242	344.5312	0	12.76	0	0	0	5	5	0.02	0.07099621	1	10	0.08	2800	337.2821	40.92398	-91.39366
5478038	39	93	89	-4.384847	-1.62242	344.5312	0	12.76	0	0	0	5	5	0.02	0.07099621	1	10	0.08	2800	337.2821	40.92398	-91.39366
5478135	39	93	89	-4.384847	-1.62242	344.5312	0	12.76	0	0	0	5	5	0.02	0.07099621	1	10	0.08	2800	337.2821	40.92398	-91.39366
5478215	39	93	89	-4.384847	-1.62242	344.5312	0	12.76	0	0	0	5	5	0.02	0.07099621	1	10	0.08	2800	337.2821	40.92398	-91.39366
5478308	39	93	89	-4.384847	-1.62242	344.5312	0	12.76	0	0	0	5	5	0.02	0.07099621	1	10	0.08	2800	337.2821	40.92398	-91.39366
5478393	39	93	89	-4.384847	-1.62242	344.5312	0	12.76	0	0	0	5	5	0.02	0.07099621	1	10	0.08	2800	337.2821	40.92398	-91.39366
5478487	39	93	89	-4.384847	-1.62242	344.5312	0	12.76	0	0	0	5	5	0.02	0.07099621	1	10	0.08	2800	337.2821	40.92398	-91.39366
5478579	39	93	89	-4.384847	-1.62242	344.5312	0	12.76	0	0	0	5	5	0.02	0.07099621	1	10	0.08	2800	337.2821	40.92398	-91.39366
5478657	39	93	89	-4.384847	-1.62242	344.5312	0	12.76	0	0	0	5	5	0.02	0.07099621	1	10	0.08	2800	337.2821	40.92398	-91.39366
5478761	39	93	89	-4.384847	-1.62242	344.5312	0	12.76	0	0	0	5	5	0.02	0.07099621	1	10	0.08	2800	337.2821	40.92398	-91.39366
5478858	39	93	89	-4.384847	-1.62242	344.5312	0	12.76	0	0	0	5	5	0.02	0.07099621	1	10	0.08	2800	337.2821	40.92398	-91.39366
5478940	39	93	89	-4.384847	-1.62242	344.5312	0	12.76	0	0	0	5	5	0.02	0.07099621	1	10	0.08	2800	337.2821	40.92398	-91.39366
5479036	39	93	89	-4.384847	-1.62242	344.5312	0	12.76	0	0	0	5	5	0.02	0.07099621	1	10	0.08	2800	337.2821	40.92398	-91.39366
5479130	39	93	89	-4.384847	-1.62242	344.5312	0	12.76	0	0	0	5	5	0.02	0.07099621	1	10	0.08	2800	337.2821	40.92398	-91.39366
5479220	39	93	89	-4.384847	-1.62242	344.5312	0	12.76	0	0	0	5	5	0.02	0.07099621	1	10	0.08	2800	337.2821	40.92398	-91.39366
5479314	39	93	89	-4.384847	-1.62242	344.5312	0	12.76	0	0	0	5	5	0.02	0.07099621	1	10	0.08	2800	337.2821	40.92398	-91.39366
5479392	39	93	89	-4.384847	-1.62242	344.5312	0	12.76	0	0	0	5	5	0.02	0.07099621	1	10	0.08	2800	337.2821	40.92398	-91.39366
5479486	39	93	89	-4.384847	-1.62242	344.5312	0	12.76	0	0	0	5	5	0.02	0.07099621	1	10	0.08	2800	337.2821	40.92398	-91.39366
5479589	39	93	89	-4.384847	-1.62242	344.5312	0	12.76	0	0	0	5	5	0.02	0.07099621	1	10	0.08	2800	337.2821	40.92398	-91.39366
5479685	39	93	89	-4.384847	-1.62242	344.5312	0	12.76	0	0	0	5	5	0.02	0.07099621	1	10	0.08	2800	337.2821	40.92398	-91.39366
5479766	39	93	89	-4.384847	-1.62242	344.5312	0	12.76	0	0	0	5	5	0.02	0.07099621	1	10	0.08	2800	337.2821	40.92398	-91.39366
5479834	39	93	89	-4.384847	-1.62242	344.5312	0	12.76	0	0	0	5	5	0.02	0.07099621	1	10	0.08	2800	337.2821	40.92398	-91.39366
5479915	39	93	89	-4.384847	-1.62242	344.5312	0	12.76	0	0	0	5	5	0.02	0.07099621	1	10	0.08	2800	337.2821	40.92398	-91.39366
5480013	39	93	89	-4.384847	-1.62242	344.5312	0	12.76	0	0	0	5	5	0.02	0.07099621	1	10	0.08	2800	337.2821	40.92398	-91.39366
5480110	39	93	89	-4.384847	-1.62242	344.5312	0	12.76	0	0	0	5	5	0.02	0.07099621	1	10	0.08	2800	337.2821	40.92398	-91.39366
5480192	39	93	89	-4.384847	-1.62242	344.5312	0	12.76	0	0	0	5	5	0.02	0.07099621	1	10	0.08	2800	337.2821	40.92398	-91.39366
5480288	39	93	89	-4.384847	-1.62242	344.5312	0	12.76	0	0	0	5	5	0.02	0.07099621	1	10	0.08	2800	337.2821	40.92398	-91.39366
5480370	39	93	89	-4.384847	-1.62242	344.5312	0	12.76	0	0	0	5	5	0.02	0.07099621	1	10	0.08	2800	337.2821	40.92398	-91.39366
5480474	39	93	89	-4.384847	-1.62242	344.5312	0	12.76	0	0	0	5	5	0.02	0.07099621	1	10	0.08	2800	337.2821	40.92398	-91.39366
5480571	39	93	89	-4.384847	-1.62242	344.5312	0	12.76	0	0	0	5	5	0.02	0.07099621	1	10	0.08	2800	337.2821	40.92398	-91.39366
5480668	39	93	89	-4.384847	-1.62242	344.5312	0	12.76	0	0	0	5	5	0.02	0.07099621	1	10	0.08	2800	337.2821	40.92398	-91.39366
5480749	39	93	89	-4.384847	-1.62242	344.5312	0	12.76	0	0	0	5	5	0.02	0.07099621	1	10	0.08	2800	337.2821	40.92398	-91.39366
5480850	39	93	89	-4.384847	-1.62242	344.5312	0	12.76	0	0	0	5	5	0.02	0.07099621	1	10	0.08	2800	337.2821	40.92398	-91.39366
5480935	39	93	89	-4.384847	-1.62242	344.5312	0	12.76	0	0	0	5	5	0.02	0.07099621	1	10	0.08	2800	337.2821	40.92398	-91.39366
5481019	39	93	89	-4.384847	-1.62242	344.5312	0	12.76	0	0	0	5	5	0.02	0.07099621	1	10	0.08	2800	337.2821	40.92398	-91.39366
5481120	39	93	89	-4.384847	-1.62242	344.5312	0	12.76	0	0	0	5	5	0.02	0.07099621	1	10	0.08	2800	337.2821	40.92398	-91.39366
5481201	39	93	89	-4.384847	-1.62242	344.5312	0	12.76	0	0	0	5	5	0.02	0.07099621	1	10	0.08	2800	337.2821	40.92398	-91.39366
5481298	39	93	89	-4.384847	-1.62242	344.5312	0	12.76	0	0	0	5	5	0.02	0.07099621	1	10	0.08	2800	337.2821	40.92398	-91.39366
5481381	39	93	89	-4.384847	-1.62242	344.5312	0	12.76	0	0	0	5	5	0.02	0.07099621	1	10	0.08	2800	337.2821	40.92398	-91.39366
5481494	39	93	89	-4.384847	-1.62242	344.5312	0	12.76	0	0	0	5	5	0.02	0.07099621	1	10	0.08	2800	337.2821	40.92398	-91.39366
5481598	39	93	89	-4.384847	-1.62242	344.5312	0	12.76	0	0	0	5	5	0.02	0.07099621	1	10	0.08	2800	337.2821	40.92398	-91.39366
5481680	39	93	89	-4.384847	-1.62242	344.5312	0	12.76	0	0	0	5	5	0.02	0.07099621	1	10	0.08	2800	337.2821	40.92398	-91.39366
5481778	39	93	89	-4.384847	-1.62242	344.5312	0	12.76	0	0	0	5	5	0.02	0.07099621	1	10	0.08	2800	337.2821	40.92398	-91.39366
5481864	39	93	89	-4.384847	-1.62242	344.5312	0	12.76	0	0	0	5	5	0.02	0.07099621	1	10	0.08	2800	337.2821	40.92398	-91.39366
5481964	39	93	89	-4.384847	-1.62242	344.5312	0	12.76	0	0	0	5	5	0.02	0.07099621	1	10	0.08	2800	337.2821	40.92398	-91.39366
5482045	39	93	89	-4.384847	-1.62242	344.5312	0	12.76	0	0	0	5	5	0.02	0.07099621	1	10	0.08	2800	337.2821	40.92398	-91.39366
5482130	39	93	89	-4.384847	-1.62242	344.5312	0	12.76	0	0	0	5	5	0.02	0.07099621	1	10	0.08	2800	337.2821	40.92398	-91.39366
5482222	39	93	89	-4.384847	-1.62242	344.5312	0	12.76	0	0	0	5	5	0.02	0.07099621	1	10	0.08	2800	337.2821	40.92398	-91.39366
5482314	39	93	89	-4.384847	-1.62242	344.5312	0	12.76	0	0	0	5	5	0.02	0.07099621	1	10	0.08	2800	337.2821	40.92398	-91.39366
5482393	39	93	89	-4.384847	-1.62242	344.5312	0	12.76	0	0	0	5	5	0.02	0.07099621	1	10	0.08	2800	337.2821	40.92398	-91.39366
5482499	39	93	89	-4.384847	-1.62242	344.5312	0	12.76	0	0	0	5	5	0.02	0.07099621	1	10	0.08	2800	337.2821	40.92398	-91.39366
5482558	39	93	89	-4.384847	-1.62242	344.5312	0	12.76	0	0	0	5	5	0.02	0.07099621	1	10	0.08	2800	337.2821	40.92398	-91.39366
5482642	39	93	89	-4.384847	-1.62242	344.5312	0	12.76	0	0	0	5	5	0.02	0.07099621	1	10	0.08	2800	337.2821	40.92398	-91.39366
5482738	39	93	89	-4.384847	-1.62242	344.5312	0	12.76	0	0	0	5	5	0.02	0.07099621	1	10	0.08	2800	337.2821	40.92398	-91.39366
5482816	39	93	89	-4.384847	-1.62242	344.5312	0	12.76	0	0	0	5	5	0.02	0.07099621	1	10	0.08	2800	337.2821	40.92398	-91.39366
5482912	39	93	89	-4.384847	-1.62242	344.5312	0	12.76	0	0	0	5	5	0.02	0.07099621	1	10	0.08	2800	337.2821	40.92398	-91.39366
5482994	39	93	89	-4.384847	-1.62242	344.5312	0	12.76	0	0	0	5	5	0.02	0.07099621	1	10	0.08	2800	337.2821	40.92398	-91.39366
5483074	39	93	89	-4.384847	-1.62242	344.5312	0	12.76	0	0	0	5	5	0.02	0.07099621	1	10	0.08	2800	337.2821	40.92398	-91.39366
5483167	39	93	89	-4.384847	-1.62242	344.5312	0	12.76	0	0	0	5	5	0.02	0.07099621	1	10	0.08	2800	337.2821	40.92398	-91.39366
5483262	39	93	89	-4.384847	-1.62242	344.5312	0	12.76	0	0	0	5	5	0.02	0.07099621	1	10	0.08	2800	337.2821	40.92398	-91.39366
5483341	39	93	89	-4.384847	-1.62242	344.5312	0	12.76	0	0	0	5	5	0.02	0.07099621	1	10	0.08	2800	337.2821	40.92398	-91.39366
5483441	39	93	89	-4.384847	-1.62242	344.5312	0	12.76	0	0	0	5	5	0.02	0.07099621	1	10	0.08	2800	337.2821	40.92398	-91.39366
5483538	39	93	89	-4.384847	-1.62242	344.5312	0	12.76	0	0	0	5	5	0.02	0.07099621	1	10	0.08	2800	337.2821	40.92398	-91.39366
5483620	39	93	89	-4.384847	-1.62242	344.5312	0	12.76	0	0	0	5	5	0.02	0.07099621	1	10	0.08	2800	337.2821	40.92398	-91.39366
5483715	39	93	89	-4.384847	-1.62242	344.5312	0	12.76	0	0	0	5	5	0.02	0.07099621	1	10	0.08	2800	337.2821	40.92398	-91.39366
5483798	39	93	89	-4.384847	-1.62242	344.5312	0	12.76	0	0	0	5	5	0.02	0.07099621	1	10	0.08	2800	337.2821	40.92398	-91.39366
5483892	39	93	89	-4.384847	-1.62242	344.5312	0	12.76	0	0	0	5	5	0.02	0.07099621	1	10	0.08	2800	337.2821	40.92398	-91.39366
5483971	39	93	89	-4.384847	-1.62242	344.5312	0	12.76	0	0	0	5	5	0.02	0.07099621	1	10	0.08	2800	337.2821	40.92398	-91.39366
5484072	39	93	89	-4.384847	-1.62242	344.5312	0	12.76	0	0	0	5	5	0.02	0.07099621	1	10	0.08	2800	337.2821	40.92398	-91.39366
5484151	39	93	89	-4.384847	-1.62242	344.5312	0	12.76	0	0	0	5	5	0.02	0.07099621	1	10	0.08	2800	337.2821	40.92398	-91.39366
5484245	39	93	89	-4.384847	-1.62242	344.5312	0	12.76	0	0	0	5	5	0.02	0.07099621	1	10	0.08	2800	337.2821	40.92398	-91.39366
5484324	39	93	89	-4.384847	-1.62242	344.5312	0	12.76	0	0	0	5	5	0.02	0.07099621	1	10	0.08	2800	337.2821	40.92398	-91.39366
5484425	39	93	89	-4.384847	-1.62242	344.5312	0	12.76	0	0	0	5	5	0.02	0.07099621	1	10	0.08	2800	337.2821	40.92398	-91.39366
5484504	39	93	89	-4.384847	-1.62242	344.5312	0	12.76	0	0	0	5	5	0.02	0.07099621	1	10	0.08	2800	337.2821	40.92398	-91.39366
5484602	39	93	89	-4.384847	-1.62242	344.5312	0	12.76	0	0	0	5	5	0.02	0.07099621	1	10	0.08	2800	337.2821	40.92398	-91.39366
5484681	39	93	89	-4.384847	-1.62242	344.5312	0	12.76	0	0	0	5	5	0.02	0.07099621	1	10	0.08	2800	337.2821	40.92398	-91.39366
5484763	39	93	89	-4.384847	-1.62242	344.5312	0	12.76	0	0	0	5	5	0.02	0.07099621	1	10	0.08	2800	337.2821	40.92398	-91.39366
5484857	39	93	89	-4.384847	-1.62242	344.5312	0	12.76	0	0	0	5	5	0.02	0.07099621	1	10	0.08	2800	337.2821	40.92398	-91.39366
5484953	39	93	89	-4.384847	-1.62242	344.5312	0	12.76	0	0	0	5	5	0.02	0.07099621	1	10	0.08	2800	337.2821	40.92398	-91.39366
5485033	39	93	89	-4.384847	-1.62242	344.5312	0	12.76	0	0	0	5	5	0.02	0.07099621	1	10	0.08	2800	337.2821	40.92398	-91.39366
5485128	39	93	89	-4.384847	-1.62242	344.5312	0	12.76	0	0	0	5	5	0.02	0.07099621	1	10	0.08	2800	337.2821	40.92398	-91.39366
5485207	39	93	89	-4.384847	-1.62242	344.5312	0	12.76	0	0	0	5	5	0.02	0.07099621	1	10	0.08	2800	337.2821	40.92398	-91.39366
5485302	39	93	89	-4.384847	-1.62242	344.5312	0	12.76	0	0	0	5	5	0.02	0.07099621	1	10	0.08	2800	337.2821	40.92398	-91.39366
5485403	39	93	89	-4.384847	-1.62242	344.5312	0	12.76	0	0	0	5	5	0.02	0.07099621	1	10	0.08	2800	337.2821	40.92398	-91.39366
5485485	39	93	89	-4.384847	-1.62242	344.5312	0	12.76	0	0	0	5	5	0.02	0.07099621	1	10	0.08	2800	337.2821	40.92398	-91.39366
5485580	39	93	89	-4.384847	-1.62242	344.5312	0	12.76	0	0	0	5	5	0.02	0.07099621	1	10	0.08	2800	337.2821	40.92398	-91.39366
5485664	39	93	89	-4.384847	-1.62242	344.5312	0	12.76	0	0	0	5	5	0.02	0.07099621	1	10	0.08	2800	337.2821	40.92398	-91.39366
5485758	39	93	89	-4.384847	-1.62242	344.5312	0	12.76	0	0	0	5	5	0.02	0.07099621	1	10	0.08	2800	337.2821	40.92398	-91.39366
5485854	39	93	89	-4.384847	-1.62242	344.5312	0	12.76	0	0	0	5	5	0.02	0.07099621	1	10	0.08	2800	337.2821	40.92398	-91.39366
5485933	39	93	89	-4.384847	-1.62242	344.5312	0	12.76	0	0	0	5	5	0.02	0.07099621	1	10	0.08	2800	337.2821	40.92398	-91.39366
5486028	39	93	89	-4.384847	-1.62242	344.5312	0	12.76	0	0	0	5	5	0.02	0.07099621	1	10	0.08	2800	337.2821	40.92398	-91.39366
5486106	39	93	89	-4.384847	-1.62242	344.5312	0	12.76	0	0	0	5	5	0.02	0.07099621	1	10	0.08	2800	337.2821	40.92398	-91.39366
5486200	39	93	89	-4.384847	-1.62242	344.5312	0	12.76	0	0	0	5	5	0.02	0.07099621	1	10	0.08	2800	337.2821	40.92398	-91.39366
5486278	39	93	89	-4.384847	-1.62242	344.5312	0	12.76	0	0	0	5	5	0.02	0.07099621	1	10	0.08	2800	337.2821	40.92398	-91.39366
5486378	39	93	89	-4.384847	-1.62242	344.5312	0	12.76	0	0	0	5	5	0.02	0.07099621	1	10	0.08	2800	337.2821	40.92398	-91.39366
5486454	39	93	89	-4.384847	-1.62242	344.5312	0	12.76	0	0	0	5	5	0.02	0.07099621	1	10	0.08	2800	337.2821	40.92398	-91.39366
5486555	39	93	89	-4.384847	-1.62242	344.5312	0	12.76	0	0	0	5	5	0.02	0.07099621	1	10	0.08	2800	337.2821	40.92398	-91.39366
5486631	39	93	89	-4.384847	-1.62242	344.5312	0	12.76	0	0	0	5	5	0.02	0.07099621	1	10	0.08	2800	337.2821	40.92398	-91.39366
5486723	39	93	89	-4.384847	-1.62242	344.5312	0	12.76	0	0	0	5	5	0.02	0.07099621	1	10	0.08	2800	337.2821	40.92398	-91.39366
5486800	39	93	89	-4.384847	-1.62242	344.5312	0	12.76	0	0	0	5	5	0.02	0.07099621	1	10	0.08	2800	337.2821	40.92398	-91.39366
5486892	39	93	89	-4.384847	-1.62242	344.5312	0	12.76	0	0	0	5	5	0.02	0.07099621	1	10	0.08	2800	337.2821	40.92398	-91.39366
5486984	39	93	89	-4.384847	-1.62242	344.5312	0	12.76	0	0	0	5	5	0.02	0.07099621	1	10	0.08	2800	337.2821	40.92398	-91.39366
5487128	0	0	0	0	0	0	0	0	0	0	0	0	0	0	0	0	10	0.08	2800	0	0	0
5487295	0	0	0	0	0	0	0	0	0	0	0	0	0	0	0	0	10	0.08	2800	0	0	0
5487412	0	0	0	0	0	0	0	0	0	0	0	0	0	0	0	0	10	0.08	2800	0	0	0
5487477	0	0	0	0	0	0	0	0	0	0	0	0	0	0	0	0	10	0.08	2800	0	0	0
5487590	0	0	0	0	0	0	0	0	0	0	0	0	0	0	0	0	10	0.08	2800	0	0	0
5487719	0	0	0	0	0	0	0	0	0	0	0	0	0	0	0	0	10	0.08	2800	0	0	0
5487807	0	0	0	0	0	0	0	0	0	0	0	0	0	0	0	0	10	0.08	2800	0	0	0
5487840	0	0	0	0	0	0	0	0	0	0	0	0	0	0	0	0	10	0.08	2800	0	0	0
5488025	0	0	0	0	0	0	0	12.76	0	0	0	0	0	0	0	0	10	0.08	2800	0	0	0
5488100	0	0	0	0	0	0	0	12.76	0	0	0	0	0	0	0	0	10	0.08	2800	0	0	0
5488155	0	0	0	0	0	0	0	12.76	0	0	0	0	0	0	0	0	10	0.08	2800	0	0	0
5488244	0	0	0	0	0	0	0	12.76	0	0	0	0	0	0	0	0	10	0.08	2800	0	0	0
5488367	0	0	0	0	0	0	0	12.76	0	0	0	0	0	0	0	0	10	0.08	2800	0	0	0
5488469	0	0	0	0	0	0	0	12.76	0	0	0	0	0	0	0	0	10	0.08	2800	0	0	0
5488526	0	0	0	0	0	0	0	12.76	0	0	0	0	0	0	0	0	10	0.08	2800	0	0	0
5488629	0	0	0	0	0	0	0	12.76	0	0	0	0	0	0	0	0	10	0.08	2800	0	0	0
5488748	0	0	0	0	0	0	0	12.76	0	0	0	0	0	0	0	0	10	0.08	2800	0	0	0
5488857	0	0	0	0	0	0	0	12.82	0	0	0	0	0	0	0	0	10	0.08	2800	0	0	0
5488932	0	0	0	0	0	0	0	12.82	0	0	0	0	0	0	0	0	10	0.08	2800	0	0	0
5489029	0	0	0	0	0	0	0	12.82	0	0	0	0	0	0	0	0	10	0.08	2800	0	0	0
5489132	0	0	0	0	0	0	0	12.82	0	0	0	0	0	0	0	0	10	0.08	2800	0	0	0
5489220	0	0	0	0	0	0	0	12.82	0	0	0	0	0	0	0	0	10	0.08	2800	0	0	0
5489372	0	0	0	0	0	0	0	12.82	0	0	0	0	0	0	0	0	10	0.08	2800	0	0	0
5489442	0	0	0	0	0	0	0	12.82	0	0	0	0	0	0	0	0	10	0.08	2800	0	0	0
5489535	0	0	0	0	0	0	0	12.82	0	0	0	0	0	0	0	0	10	0.08	2800	0	0	0
5489666	0	0	0	0	0	0	0	12.82	0	0	0	0	0	0	0	0	10	0.08	2800	0	0	0
5489760	0	0	0	0	0	0	0	12.82	0	0	0	0	0	0	0	0	10	0.08	2800	0	0	0
5489812	0	0	0	0	0	0	0	12.82	0	0	0	0	0	0	0	0	10	0.08	2800	0	0	0
5490028	0	0	0	0	0	0	0	12.82	0	0	0	0	0	0	0	0	10	0.08	2800	0	0	0
5490123	0	0	0	0	0	0	0	12.82	0	0	0	0	0	0	0	0	10	0.08	2800	0	0	0
5490251	0	0	0	0	0	0	0	12.82	0	0	0	0	0	0	0	0	10	0.08	2800	0	0	0
5490348	0	0	0	0	0	0	0	12.82	0	0	0	0	0	0	0	0	10	0.08	2800	0	0	0
5490417	0	0	0	0	0	0	0	12.82	0	0	0	0	0	0	0	0	10	0.08	2800	0	0	0
5490504	0	0	0	0	0	0	0	12.82	0	0	0	0	0	0	0	0	10	0.08	2800	0	0	0
5490654	0	0	0	0	0	0	0	12.76	0	0	0	0	0	0	0	0	10	0.08	2800	0	0	0
5490725	0	0	0	0	0	0	0	12.76	0	0	0	0	0	0	0	0	10	0.08	2800	0	0	0
5490888	0	0	0	0	0	0	0	12.76	0	0	0	0	0	0	0	0	10	0.08	2800	0	0	0
5490962	0	0	0	0	0	0	0	12.76	0	0	0	0	0	0	0	0	10	0.08	2800	0	0	0
5491028	0	0	0	0	0	0	0	12.76	0	0	0	0	0	0	0	0	10	0.08	2800	0	0	0
5491144	0	0	0	0	0	0	0	12.76	0	0	0	0	0	0	0	0	10	0.08	2800	0	0	0
5491244	0	0	0	0	0	0	0	12.76	0	0	0	0	0	0	0	0	10	0.08	2800	0	0	0
5491377	0	0	0	0	0	0	0	12.76	0	0	0	0	0	0	0	0	10	0.08	2800	0	0	0
5491427	0	0	0	0	0	0	0	12.76	0	0	0	0	0	0	0	0	10	0.08	2800	0	0	0
5491543	0	0	0	0	0	0	0	12.76	0	0	0	0	0	0	0	0	10	0.08	2800	0	0	0
5491686	0	0	0	0	0	0	0	12.76	0	0	0	0	0	0	0	0	10	0.08	2800	0	0	0
5491748	0	0	0	0	0	0	0	12.76	0	0	0	0	0	0	0	0	10	0.08	2800	0	0	0
5491870	0	0	0	0	0	0	0	12.76	0	0	0	0	0	0	0	0	10	0.08	2800	0	0	0
5491960	0	0	0	0	0	0	0	12.76	0	0	0	0	0	0	0	0	10	0.08	2800	0	0	0
5492072	0	0	0	0	0	0	0	12.76	0	0	0	0	0	0	0	0	10	0.08	2800	0	0	0
5492187	0	0	0	0	0	0	0	12.76	0	0	0	0	0	0	0	0	10	0.08	2800	0	0	0
5492256	0	0	0	0	0	0	0	12.76	0	0	0	0	0	0	0	0	10	0.08	2800	0	0	0
5492360	36	-4	60	1.260626	-4.87441	352.83	0	12.76	0	0	0	5	5	0.02	-0.001408386	1	10	0.08	2800	352.8445	1E-06	1E-06
5492489	34	-12	59	0.9153747	-4.653777	352.6948	0	12.76	0	0	0	5	5	0.02	-0.01520054	1	10	0.08	2800	353.4264	1E-06	1E-06
5492592	29	-8	62	0.7520797	-4.549271	352.6246	0	12.76	0	0	0	5	5	0.02	-0.01935386	1	10	0.08	2800	353.5583	1E-06	1E-06
5492729	30	-7	58	0.3645634	-4.306228	352.4571	0	12.76	0	0	0	5	5	0.02	-0.02050911	1	10	0.08	2800	352.1109	1E-06	1E-06
5492781	31	-13	63	0.2221796	-4.215289	352.3909	0	12.76	0	0	0	5	5	0.02	-0.018052	1	10	0.08	2800	351.6404	1E-06	1E-06
5492854	32	-11	65	0.08224408	-4.1287	352.3217	0	12.76	0	0	0	5	5	0.02	-0.01793519	1	10	0.08	2800	351.2576	1E-06	1E-06
5493001	26	-10	62	-0.2423957	-3.924196	352.153	0	12.76	0	0	0	5	5	0.02	-0.01709983	1	10	0.08	2800	350.4897	1E-06	1E-06
5493100	32	-10	59	-0.4271215	-3.80712	352.0506	0	12.76	0	0	0	5	5	0.02	-0.01860031	1	10	0.08	2800	349.9356	1E-06	1E-06
5493146	32	-8	61	-0.5444422	-3.733109	351.9815	0	12.76	0	0	0	5	5	0.02	-0.02175251	1	10	0.08	2800	349.9633	1E-06	1E-06
5493335	35	-11	60	-0.817758	-3.562261	351.8118	0	12.76	0	0	0	5	5	0.02	-0.03429717	1	10	0.08	2800	349.3147	1E-06	1E-06
5493380	31	-7	61	-0.9199502	-3.499322	351.7437	0	12.76	0	0	0	5	5	0.02	-0.03944689	1	10	0.08	2800	349.3236	1E-06	1E-06
5493521	33	-8	65	-1.067767	-3.410853	351.6403	0	12.76	0	0	0	5	5	0.02	-0.0463076	1	10	0.08	2800	348.9868	1E-06	1E-06
5493696	31	-7	60	-1.345783	-3.243338	351.4343	0	12.76	0	0	0	5	5	0.02	-0.04878716	1	10	0.08	2800	347.5054	1E-06	1E-06
5493809	38	-10	59	-1.474166	-3.167851	351.3312	0	12.76	0	0	0	5	5	0.02	-0.04413472	1	10	0.08	2800	347.666	1E-06	1E-06
5493979	36	-6	65	-1.702547	-3.02081	351.1253	0	12.76	0	0	0	5	5	0.02	-0.03327958	1	10	0.08	2800	347.3112	1E-06	1E-06
5494093	33	-9	60	-1.809417	-2.956339	351.0224	0	12.76	0	0	0	5	5	0.02	-0.03006635	1	10	0.08	2800	346.9268	1E-06	1E-06
5494147	33	-8	64	-1.911385	-2.894233	350.9186	0	12.76	0	0	0	5	5	0.02	-0.03617527	1	10	0.08	2800	346.834	1E-06	1E-06
5494297	30	-12	60	-2.040426	-2.817793	350.7793	0	12.76	0	0	0	5	5	0.02	-0.03812361	1	10	0.08	2800	346.4265	1E-06	1E-06
5494361	33	-12	63	-2.071185	-2.798125	350.745	0	12.76	0	0	0	5	5	0.02	-0.03601999	1	10	0.08	2800	346.7892	1E-06	1E-06
5494630	34	-13	61	-2.321179	-2.655313	350.4383	0	12.76	0	0	0	5	5	0.02	-0.02623121	1	10	0.08	2800	346.0805	1E-06	1E-06
5494779	35	-11	64	-2.441936	-2.596678	350.3047	0	12.76	0	0	0	5	5	0.02	-0.03049601	1	10	0.08	2800	345.3695	1E-06	1E-06
5494934	33	-5	62	-2.511727	-2.544117	350.1662	0	12.76	0	0	0	5	5	0.02	-0.02350031	1	10	0.08	2800	345.7178	1E-06	1E-06
5495094	32	-9	62	-2.634851	-2.467116	349.9592	0	12.76	0	0	0	5	5	0.02	0.0007468695	1	10	0.08	2800	345.5334	1E-06	1E-06
5495245	32	-6	62	-2.726327	-2.415757	349.7885	0	12.76	0	0	0	5	5	0.02	0.002661189	1	10	0.08	2800	345.1718	1E-06	1E-06
5495283	33	-9	58	-2.745752	-2.404684	349.7545	0	12.76	0	0	0	5	5	0.02	0.004768265	1	10	0.08	2800	345.1718	1E-06	1E-06
5495386	30	-10	62	-2.784657	-2.383699	349.6856	0	12.76	0	0	0	5	5	0.02	0.01095189	1	10	0.08	2800	345.3683	1E-06	1E-06
